File: MEX1_29687_processed.xdi
# XDI/1.0
# Mono.d_spacing: 3.13897
# Reference.Element: W
# ROI.start_bin: nan
# ROI.end_bin: nan
# Element.symbol: None
# Element.edge: None
# Processing.version: spec_processing_library v0.3.5
# Column.1: energy
# Column.2: bragg
# Column.3: count_time seconds
# Column.4: i0
# Column.5: i1
# Column.6: i2
# Describe.Column.1: energy - MEX1ES01ZEB01:CALC_ENERGY_EV
# Describe.Column.2: bragg - MEX1ES01ZEB01:BRAGG_WITH_OFFSET
# Describe.Column.3: count_time - MEX1ES01ZEB01:GATE_TIME_SET
# Describe.Column.4: i0 - MEX1ES01DAQ01:ch1:S:MeanValue_RBV
# Describe.Column.5: i1 - MEX1ES01DAQ01:ch2:S:MeanValue_RBV
# Describe.Column.6: i2 - MEX1ES01DAQ01:ch3:S:MeanValue_RBV
# Samples: [417, 417, 417, 417, 417, 417]
# ///
# W foil
#
# xdi from default mda2xdi preset for mex1.
#--------
#  energy   bragg   count_time   i0   i1   i2
 10006.3  11.383  1  2.51753  2.1181  3.66263
 10016.4  11.3715  1.0  2.51054  2.11327  3.66385
 10026.4  11.36  1  2.50366  2.1085  3.66514
 10036.4  11.3485  1.0  2.4987  2.10539  3.66924
 10046.4  11.3371  1  2.49302  2.10166  3.67253
 10056.4  11.3257  1.0  2.48739  2.09787  3.67563
 10066.4  11.3143  1  2.4816  2.09416  3.67882
 10076.4  11.3029  1.0  2.48204  2.09549  3.69082
 10086.4  11.2915  1  2.47633  2.09172  3.69367
 10096.3  11.2802  1.0  2.47052  2.0878  3.69604
 10106.4  11.2689  1  2.4647  2.08392  3.69831
 10116.3  11.2576  1.0  2.45899  2.08005  3.70001
 10126.3  11.2464  1  2.45321  2.07623  3.70062
 10136.3  11.2351  1.0  2.44757  2.07246  3.69999
 10146.3  11.2239  1  2.44184  2.06864  3.69634
 10156.3  11.2127  1.0  2.43628  2.06482  3.6879
 10166.3  11.2015  1  2.43059  2.06101  3.6687
 10176.3  11.1904  1.0  2.42398  2.05642  3.62332
 10186.3  11.1793  1  2.41932  2.05342  3.50392
 10186.6  11.179  1.0  2.41917  2.05331  3.49873
 10186.8  11.1787  1  2.41897  2.05317  3.4932
 10187.1  11.1784  1.0  2.41889  2.05313  3.48775
 10187.3  11.1782  1  2.41872  2.05292  3.48169
 10187.6  11.1779  1.0  2.4185  2.05285  3.4753
 10187.8  11.1776  1  2.41831  2.05275  3.469
 10188.1  11.1773  1.0  2.41811  2.05262  3.46236
 10188.3  11.1771  1  2.418  2.05252  3.45565
 10188.6  11.1768  1.0  2.4178  2.05239  3.4485
 10188.8  11.1765  1  2.41758  2.0522  3.44107
 10189.1  11.1762  1.0  2.41734  2.05201  3.43351
 10189.3  11.1759  1  2.41713  2.0519  3.42538
 10189.6  11.1757  1.0  2.41696  2.05171  3.41707
 10189.8  11.1754  1  2.41677  2.05162  3.40858
 10190.1  11.1751  1.0  2.41659  2.05143  3.39954
 10190.3  11.1748  1  2.41642  2.05132  3.39048
 10190.6  11.1746  1.0  2.41627  2.05121  3.38067
 10190.8  11.1743  1  2.41607  2.05112  3.37059
 10191.1  11.174  1.0  2.41597  2.05107  3.36017
 10191.3  11.1737  1  2.41574  2.05092  3.3493
 10191.6  11.1734  1.0  2.41562  2.05073  3.33781
 10191.8  11.1732  1  2.41535  2.05054  3.32573
 10192.1  11.1729  1.0  2.41522  2.05046  3.3133
 10192.3  11.1726  1  2.41499  2.05035  3.29989
 10192.6  11.1723  1.0  2.41488  2.05022  3.28636
 10192.8  11.1721  1  2.41464  2.05007  3.27216
 10193.1  11.1718  1.0  2.4144  2.04988  3.25673
 10193.3  11.1715  1  2.41418  2.04972  3.24115
 10193.6  11.1712  1.0  2.414  2.04961  3.22459
 10193.8  11.1709  1  2.41379  2.04946  3.20726
 10194.1  11.1707  1.0  2.41352  2.04925  3.18859
 10194.3  11.1704  1  2.41325  2.049  3.16953
 10194.6  11.1701  1.0  2.41285  2.04877  3.14866
 10194.8  11.1698  1  2.41234  2.04836  3.12704
 10195.1  11.1696  1.0  2.41196  2.048  3.10424
 10195.3  11.1693  1  2.41154  2.0477  3.08003
 10195.6  11.169  1.0  2.41109  2.04735  3.05478
 10195.8  11.1687  1  2.41083  2.04711  3.02826
 10196.1  11.1685  1.0  2.4106  2.04701  3.0002
 10196.3  11.1682  1  2.41068  2.04703  2.971
 10196.6  11.1679  1.0  2.41077  2.04708  2.93968
 10196.8  11.1676  1  2.41076  2.04716  2.90722
 10197.1  11.1673  1.0  2.41082  2.04723  2.87226
 10197.3  11.1671  1  2.4108  2.04728  2.83504
 10197.6  11.1668  1.0  2.41072  2.0472  2.79573
 10197.8  11.1665  1  2.41071  2.0472  2.75353
 10198.1  11.1662  1.0  2.41056  2.04712  2.70892
 10198.3  11.166  1  2.41032  2.04695  2.66116
 10198.6  11.1657  1.0  2.41016  2.04677  2.61031
 10198.8  11.1654  1  2.40996  2.04674  2.55568
 10199.1  11.1651  1.0  2.40978  2.04653  2.49775
 10199.3  11.1648  1  2.40961  2.04644  2.43559
 10199.6  11.1646  1.0  2.4094  2.04625  2.36979
 10199.8  11.1643  1  2.40908  2.04607  2.29941
 10200.1  11.164  1.0  2.40884  2.04595  2.22498
 10200.3  11.1637  1  2.40874  2.04581  2.14615
 10200.6  11.1635  1.0  2.40859  2.04571  2.06238
 10200.8  11.1632  1  2.40841  2.04553  1.97314
 10201.1  11.1629  1.0  2.40819  2.04534  1.87972
 10201.3  11.1626  1  2.40789  2.04516  1.77959
 10201.6  11.1624  1.0  2.40776  2.04512  1.67614
 10201.8  11.1621  1  2.40757  2.04503  1.56744
 10202.1  11.1618  1.0  2.40732  2.0448  1.45645
 10202.3  11.1615  1  2.40702  2.0446  1.34157
 10202.6  11.1612  1.0  2.40686  2.04444  1.2261
 10202.8  11.161  1  2.40663  2.04428  1.11242
 10203.1  11.1607  1.0  2.40654  2.04417  0.998466
 10203.3  11.1604  1  2.40636  2.04404  0.888686
 10203.6  11.1601  1.0  2.40598  2.04383  0.783707
 10203.8  11.1599  1  2.40586  2.04374  0.686236
 10204.1  11.1596  1.0  2.40568  2.0436  0.597613
 10204.3  11.1593  1  2.40544  2.04337  0.517623
 10204.6  11.159  1.0  2.40525  2.04319  0.448268
 10204.8  11.1588  1  2.40501  2.04306  0.388776
 10205.1  11.1585  1.0  2.4048  2.04293  0.339019
 10205.3  11.1582  1  2.40457  2.04278  0.298784
 10205.6  11.1579  1.0  2.40438  2.04265  0.266659
 10205.8  11.1576  1  2.40416  2.04253  0.242483
 10206.1  11.1574  1.0  2.404  2.04229  0.225053
 10206.3  11.1571  1  2.4038  2.04223  0.213562
 10206.6  11.1568  1.0  2.40357  2.04209  0.207299
 10206.8  11.1565  1  2.40343  2.04201  0.2058
 10207.1  11.1563  1.0  2.40321  2.04178  0.208488
 10207.3  11.156  1  2.40294  2.04155  0.215172
 10207.6  11.1557  1.0  2.40288  2.04154  0.225276
 10207.8  11.1554  1  2.40261  2.04137  0.238854
 10208.1  11.1552  1.0  2.40244  2.04128  0.255422
 10208.3  11.1549  1  2.40223  2.04103  0.275065
 10208.6  11.1546  1.0  2.40206  2.04094  0.297119
 10208.8  11.1543  1  2.40185  2.04085  0.321186
 10209.1  11.1541  1.0  2.40177  2.04081  0.347188
 10209.3  11.1538  1  2.40161  2.04064  0.374746
 10209.6  11.1535  1.0  2.40133  2.0405  0.402996
 10209.8  11.1532  1  2.40125  2.04037  0.431978
 10210.1  11.1529  1.0  2.40108  2.04027  0.461226
 10210.3  11.1527  1  2.4008  2.0401  0.490769
 10210.6  11.1524  1.0  2.40057  2.03992  0.51998
 10210.8  11.1521  1  2.40044  2.03977  0.548414
 10211.1  11.1518  1.0  2.40024  2.03971  0.576067
 10211.3  11.1516  1  2.40011  2.03956  0.602844
 10211.6  11.1513  1.0  2.39992  2.03949  0.628545
 10211.8  11.151  1  2.39967  2.03931  0.653022
 10212.1  11.1507  1.0  2.39951  2.03915  0.676287
 10212.3  11.1505  1  2.39936  2.03899  0.697768
 10212.6  11.1502  1.0  2.39927  2.039  0.717947
 10212.8  11.1499  1  2.3991  2.03892  0.736454
 10213.1  11.1496  1.0  2.39892  2.03876  0.753441
 10213.3  11.1494  1  2.39872  2.03857  0.768858
 10213.6  11.1491  1.0  2.39859  2.0384  0.782643
 10213.8  11.1488  1  2.39839  2.03836  0.795161
 10214.1  11.1485  1.0  2.39829  2.03826  0.806493
 10214.3  11.1482  1  2.39807  2.03812  0.816469
 10214.6  11.148  1.0  2.39789  2.03802  0.825623
 10214.8  11.1477  1  2.39783  2.03788  0.834169
 10215.1  11.1474  1.0  2.39765  2.0378  0.84208
 10215.3  11.1471  1  2.39746  2.03769  0.849545
 10215.6  11.1469  1.0  2.39726  2.0375  0.856605
 10215.8  11.1466  1  2.39705  2.03735  0.863575
 10216.1  11.1463  1.0  2.39684  2.0372  0.870294
 10216.3  11.146  1  2.39664  2.03701  0.877096
 10216.6  11.1458  1.0  2.39648  2.03693  0.883644
 10216.8  11.1455  1  2.39631  2.03683  0.890609
 10217.1  11.1452  1.0  2.39608  2.03674  0.897499
 10217.3  11.1449  1  2.40156  2.04136  0.906778
 10217.6  11.1447  1.0  2.40132  2.04129  0.914156
 10217.8  11.1444  1  2.40122  2.04113  0.921735
 10218.1  11.1441  1.0  2.40106  2.04098  0.92976
 10218.3  11.1438  1  2.4008  2.04087  0.937844
 10218.6  11.1435  1.0  2.40071  2.04075  0.946452
 10218.8  11.1433  1  2.40047  2.04059  0.955148
 10219.1  11.143  1.0  2.40029  2.04046  0.964195
 10219.3  11.1427  1  2.4001  2.04033  0.973233
 10219.6  11.1424  1.0  2.39997  2.04024  0.982528
 10219.8  11.1422  1  2.39974  2.04013  0.991827
 10220.1  11.1419  1.0  2.39958  2.03992  1.00084
 10220.3  11.1416  1  2.39941  2.03982  1.00987
 10220.6  11.1413  1.0  2.39926  2.03975  1.01898
 10220.8  11.1411  1  2.39914  2.03958  1.02762
 10221.1  11.1408  1.0  2.39892  2.03946  1.0362
 10221.3  11.1405  1  2.39871  2.0393  1.04455
 10221.6  11.1402  1.0  2.39848  2.03914  1.05264
 10221.8  11.14  1  2.3983  2.03903  1.06068
 10222.1  11.1397  1.0  2.39813  2.03889  1.06819
 10222.3  11.1394  1  2.39788  2.03879  1.07546
 10222.6  11.1391  1.0  2.39771  2.03864  1.08232
 10222.8  11.1389  1  2.39746  2.03846  1.08879
 10223.1  11.1386  1.0  2.39734  2.03838  1.09493
 10223.3  11.1383  1  2.39729  2.03827  1.1006
 10223.6  11.138  1.0  2.39705  2.03812  1.10579
 10223.8  11.1378  1  2.39679  2.03796  1.11081
 10224.1  11.1375  1.0  2.3966  2.03775  1.11555
 10224.3  11.1372  1  2.39649  2.03768  1.11999
 10224.6  11.1369  1.0  2.39635  2.03755  1.12446
 10224.8  11.1367  1  2.39623  2.03749  1.12906
 10225.1  11.1364  1.0  2.39591  2.03731  1.13354
 10225.3  11.1361  1  2.39575  2.03718  1.13848
 10225.6  11.1358  1.0  2.39552  2.03699  1.14349
 10225.8  11.1355  1  2.3953  2.03691  1.14883
 10226.1  11.1353  1.0  2.39521  2.03675  1.15439
 10226.3  11.135  1  2.395  2.03659  1.16022
 10226.6  11.1347  1.0  2.3948  2.03641  1.16619
 10226.8  11.1344  1  2.39457  2.03629  1.1723
 10227.1  11.1342  1.0  2.39437  2.03617  1.17832
 10227.3  11.1339  1  2.39418  2.03607  1.18417
 10227.6  11.1336  1.0  2.39403  2.03594  1.1898
 10227.8  11.1333  1  2.39387  2.03586  1.19512
 10228.1  11.1331  1.0  2.39363  2.03561  1.2
 10228.3  11.1328  1  2.39344  2.03547  1.20456
 10228.6  11.1325  1.0  2.39322  2.03534  1.20876
 10228.8  11.1322  1  2.39311  2.03527  1.21248
 10229.1  11.132  1.0  2.39293  2.03518  1.2158
 10229.3  11.1317  1  2.39273  2.03504  1.21864
 10229.6  11.1314  1.0  2.39254  2.03474  1.22102
 10229.8  11.1311  1  2.39229  2.03471  1.22298
 10230.1  11.1309  1.0  2.39217  2.03455  1.22465
 10230.3  11.1306  1  2.39191  2.03438  1.22585
 10230.6  11.1303  1.0  2.39167  2.03423  1.22679
 10230.8  11.13  1  2.39146  2.03398  1.22756
 10231.1  11.1298  1.0  2.39127  2.03392  1.22799
 10231.3  11.1295  1  2.39105  2.03374  1.22838
 10231.6  11.1292  1.0  2.39081  2.03358  1.22856
 10231.8  11.1289  1  2.39056  2.03334  1.22871
 10232.1  11.1287  1.0  2.39025  2.03312  1.22873
 10232.3  11.1284  1  2.3899  2.03293  1.22883
 10232.6  11.1281  1.0  2.38948  2.03256  1.22901
 10232.8  11.1278  1  2.38889  2.0321  1.22938
 10233.1  11.1276  1.0  2.38826  2.03146  1.22959
 10233.3  11.1273  1  2.38719  2.03067  1.23007
 10233.6  11.127  1.0  2.38595  2.02967  1.23065
 10233.8  11.1267  1  2.38444  2.02833  1.23132
 10234.1  11.1265  1.0  2.38291  2.02709  1.23223
 10234.3  11.1262  1  2.38164  2.02608  1.23338
 10234.6  11.1259  1.0  2.38102  2.02551  1.23497
 10234.8  11.1256  1  2.38091  2.02544  1.23708
 10235.1  11.1254  1.0  2.38144  2.02595  1.23943
 10235.3  11.1251  1  2.38261  2.02697  1.2425
 10235.6  11.1248  1.0  2.38405  2.02819  1.24559
 10235.8  11.1245  1  2.38549  2.02949  1.24878
 10236.1  11.1243  1.0  2.38656  2.03038  1.25172
 10236.3  11.124  1  2.3873  2.03094  1.25429
 10236.6  11.1237  1.0  2.38758  2.03129  1.25674
 10236.8  11.1234  1  2.38762  2.03142  1.25855
 10237.1  11.1232  1.0  2.38766  2.0314  1.26014
 10237.3  11.1229  1  2.38747  2.03123  1.26143
 10237.6  11.1226  1.0  2.38728  2.03112  1.2625
 10237.8  11.1223  1  2.38703  2.03098  1.26341
 10238.1  11.1221  1.0  2.38684  2.03083  1.26404
 10238.3  11.1218  1  2.38669  2.03066  1.26458
 10238.6  11.1215  1.0  2.38651  2.0306  1.2648
 10238.8  11.1212  1  2.38633  2.03041  1.26494
 10239.1  11.121  1.0  2.38612  2.03032  1.2649
 10239.3  11.1207  1  2.3858  2.03011  1.26475
 10239.6  11.1204  1.0  2.38562  2.02996  1.26459
 10239.8  11.1201  1  2.38549  2.02984  1.2644
 10240.1  11.1199  1.0  2.38521  2.02962  1.26395
 10240.3  11.1196  1  2.3851  2.02953  1.26368
 10240.6  11.1193  1.0  2.3849  2.02935  1.26345
 10240.8  11.119  1  2.38481  2.02933  1.26328
 10241.1  11.1188  1.0  2.38462  2.02924  1.26313
 10241.3  11.1185  1  2.38445  2.02905  1.2631
 10241.6  11.1182  1.0  2.38424  2.02891  1.26297
 10241.8  11.1179  1  2.38404  2.02878  1.26339
 10242.1  11.1177  1.0  2.38388  2.02867  1.26379
 10242.3  11.1174  1  2.38366  2.02857  1.26414
 10242.6  11.1171  1.0  2.38347  2.02835  1.26493
 10242.8  11.1168  1  2.38326  2.02811  1.26578
 10243.1  11.1166  1.0  2.38304  2.02808  1.26701
 10243.3  11.1163  1  2.38293  2.028  1.26825
 10243.6  11.116  1.0  2.38282  2.02793  1.2699
 10243.8  11.1157  1  2.38252  2.02771  1.27161
 10244.1  11.1155  1.0  2.38239  2.02754  1.27361
 10244.3  11.1152  1  2.38214  2.02744  1.2757
 10244.6  11.1149  1.0  2.38193  2.02719  1.278
 10244.8  11.1146  1  2.38177  2.02715  1.28057
 10245.1  11.1144  1.0  2.38162  2.02708  1.2831
 10245.3  11.1141  1  2.38142  2.02678  1.28599
 10245.6  11.1138  1.0  2.38121  2.02671  1.28891
 10245.8  11.1135  1  2.38102  2.02653  1.29195
 10246.1  11.1133  1.0  2.38082  2.0264  1.29504
 10246.3  11.113  1  2.3807  2.02638  1.29839
 10246.6  11.1127  1.0  2.38059  2.02626  1.30176
 10246.8  11.1124  1  2.38026  2.02599  1.30498
 10247.1  11.1122  1.0  2.37998  2.02584  1.30833
 10247.3  11.1119  1  2.37987  2.02573  1.31158
 10247.6  11.1116  1.0  2.37971  2.02558  1.31463
 10247.8  11.1113  1  2.37945  2.02545  1.31778
 10248.1  11.1111  1.0  2.37931  2.02536  1.32073
 10248.3  11.1108  1  2.37898  2.02512  1.32347
 10248.6  11.1105  1.0  2.37884  2.02503  1.32618
 10248.8  11.1102  1  2.37845  2.02469  1.32843
 10249.1  11.11  1.0  2.37847  2.02467  1.33065
 10249.3  11.1097  1  2.37822  2.02457  1.33261
 10249.6  11.1094  1.0  2.37788  2.02434  1.33418
 10249.8  11.1091  1  2.37786  2.02425  1.3357
 10250.1  11.1089  1.0  2.37762  2.02405  1.33661
 10250.3  11.1086  1  2.37724  2.02377  1.33714
 10250.6  11.1083  1.0  2.37724  2.02378  1.33754
 10250.8  11.108  1  2.37695  2.02367  1.33758
 10251.1  11.1078  1.0  2.37666  2.02335  1.33727
 10251.3  11.1075  1  2.37651  2.02328  1.33658
 10251.6  11.1072  1.0  2.38174  2.02768  1.33867
 10251.8  11.107  1  2.38125  2.02733  1.33709
 10252.1  11.1067  1.0  2.38094  2.02714  1.33564
 10252.3  11.1064  1  2.3804  2.02666  1.33343
 10252.6  11.1061  1.0  2.37946  2.02592  1.33107
 10252.8  11.1059  1  2.37835  2.02495  1.32824
 10253.1  11.1056  1.0  2.37679  2.02369  1.32492
 10253.3  11.1053  1  2.37517  2.02219  1.32142
 10253.6  11.105  1.0  2.37361  2.02094  1.31785
 10253.8  11.1048  1  2.37242  2.01997  1.31455
 10254.1  11.1045  1.0  2.37183  2.01949  1.31134
 10254.3  11.1042  1  2.37209  2.01981  1.30867
 10254.6  11.1039  1.0  2.37309  2.02059  1.30623
 10254.8  11.1037  1  2.3742  2.02162  1.30377
 10255.1  11.1034  1.0  2.37614  2.02324  1.30178
 10255.3  11.1031  1  2.37741  2.0244  1.29944
 10255.6  11.1028  1.0  2.37834  2.02517  1.29696
 10255.8  11.1026  1  2.37897  2.02571  1.29434
 10256.1  11.1023  1.0  2.37891  2.02572  1.29126
 10256.3  11.102  1  2.37915  2.02591  1.28846
 10266.3  11.0911  1.0  2.37381  2.02227  1.2659
 10276.3  11.0801  1  2.36762  2.018  1.281
 10286.3  11.0692  1.0  2.36243  2.01455  1.24945
 10296.3  11.0583  1  2.35684  2.01058  1.30393
 10306.3  11.0475  1.0  2.35127  2.00674  1.29287
 10316.3  11.0366  1  2.34559  2.00286  1.28907
 10326.3  11.0258  1.0  2.34002  1.999  1.26417
 10336.3  11.015  1  2.33445  1.99512  1.24075
 10346.3  11.0042  1.0  2.32893  1.99133  1.25861
 10356.3  10.9935  1  2.32343  1.98744  1.30779
 10366.3  10.9827  1.0  2.3179  1.98363  1.30946
 10376.3  10.972  1  2.31242  1.97978  1.30746
 10386.3  10.9613  1.0  2.30679  1.97589  1.3013
 10396.3  10.9507  1  2.30127  1.97201  1.24508
 10406.3  10.94  1.0  2.29577  1.96814  1.22521
 10416.3  10.9294  1  2.29025  1.96426  1.32527
 10426.3  10.9188  1.0  2.2848  1.96041  1.33376
 10436.3  10.9082  1  2.27921  1.9565  1.32383
 10446.3  10.8976  1.0  2.27371  1.95256  1.30507
 10456.3  10.8871  1  2.26822  1.94878  1.29715
 10466.3  10.8765  1.0  2.2629  1.9449  1.28556
 10476.3  10.866  1  2.25744  1.94106  1.27808
 10486.3  10.8555  1.0  2.2519  1.93712  1.3002
 10496.3  10.8451  1  2.2464  1.93327  1.32814
 10506.3  10.8346  1.0  2.24094  1.92937  1.34272
 10516.3  10.8242  1  2.23554  1.92548  1.33225
 10526.3  10.8138  1.0  2.22992  1.92141  1.31674
 10536.3  10.8034  1  2.2245  1.91753  1.30476
 10546.3  10.793  1.0  2.21912  1.91374  1.30585
 10556.3  10.7827  1  2.21386  1.90995  1.32189
 10566.3  10.7724  1.0  2.20815  1.90576  1.33277
 10576.3  10.7621  1  2.20336  1.90237  1.34558
 10586.3  10.7518  1.0  2.19717  1.8978  1.35322
 10596.3  10.7415  1  2.19247  1.89455  1.34603
 10606.3  10.7313  1.0  2.18462  1.88852  1.34228
 10616.3  10.7211  1  2.18152  1.88657  1.34072
 10626.3  10.7108  1.0  2.17623  1.8827  1.34432
 10636.3  10.7007  1  2.17072  1.87874  1.34365
 10646.3  10.6905  1.0  2.16531  1.8749  1.3456
 10656.3  10.6803  1  2.15932  1.87037  1.35536
 10666.3  10.6702  1.0  2.15263  1.86522  1.3635
 10676.3  10.6601  1  2.14931  1.86311  1.37163
 10686.3  10.65  1.0  2.14473  1.85991  1.37504
 10696.3  10.6399  1  2.13928  1.85597  1.3805
 10706.3  10.6299  1.0  2.13402  1.85206  1.37607
 10716.3  10.6198  1  2.12865  1.84812  1.37406
 10726.3  10.6098  1.0  2.12332  1.84422  1.37712
 10736.3  10.5998  1  2.11805  1.84033  1.37742
 10746.3  10.5899  1.0  2.11281  1.83651  1.37904
 10756.3  10.5799  1  2.10762  1.83264  1.38599
 10766.3  10.57  1.0  2.10241  1.82877  1.38387
 10776.3  10.56  1  2.09721  1.82496  1.38034
 10786.3  10.5501  1.0  2.09168  1.82091  1.39657
 10796.3  10.5403  1  2.08611  1.81669  1.41639
 10806.3  10.5304  1.0  2.06054  1.79506  1.41054
 10816.3  10.5205  1  2.07603  1.80918  1.42371
 10826.3  10.5107  1.0  2.07139  1.8059  1.41691
 10836.3  10.5009  1  2.06597  1.80181  1.40548
 10846.3  10.4911  1.0  2.06075  1.79794  1.3981
 10856.3  10.4814  1  2.0454  1.78518  1.39813
 10866.3  10.4716  1.0  2.051  1.79072  1.41596
 10876.2  10.4619  1  2.04573  1.78679  1.4187
 10886.25  10.4521  1.0  2.04064  1.78289  1.41815
 10896.2  10.4424  1  2.03537  1.77906  1.42356
 10906.2  10.4328  1.0  2.03031  1.77524  1.43591
 10916.2  10.4231  1  2.02524  1.77137  1.45098
 10926.2  10.4135  1.0  2.02011  1.76754  1.45601
 10936.2  10.4038  1  2.01501  1.76367  1.45853
 10946.2  10.3942  1.0  2.00839  1.75848  1.45501
 10956.2  10.3846  1  2.0049  1.7561  1.45307
 10966.2  10.3751  1.0  1.99859  1.75118  1.44463
 10976.2  10.3655  1  1.99479  1.74853  1.43746
 10986.2  10.356  1.0  1.98964  1.74461  1.43424
 10996.2  10.3464  1  1.98457  1.74077  1.44534
 11006.2  10.3369  1.0  1.97956  1.73691  1.45677
 11016.2  10.3275  1  1.97452  1.7331  1.46104
 11026.2  10.318  1.0  1.96956  1.72932  1.46682
 11036.2  10.3085  1  1.96443  1.7254  1.47919
 11046.2  10.2991  1.0  1.95939  1.72161  1.48898
 11056.2  10.2897  1  1.9544  1.71777  1.49403
 11066.2  10.2803  1.0  1.94943  1.71397  1.495
 11076.2  10.2709  1  1.94439  1.71012  1.49056
 11086.2  10.2616  1.0  1.93915  1.70608  1.48309
 11096.2  10.2522  1  1.93431  1.70238  1.47526
 11106.2  10.2429  1.0  1.92713  1.69668  1.47507
 11116.2  10.2336  1  1.92432  1.69473  1.48173
 11126.2  10.2243  1.0  1.91939  1.69095  1.49014
 11136.2  10.215  1  1.91431  1.68707  1.49583
 11146.2  10.2057  1.0  1.90938  1.68325  1.49843
 11156.2  10.1965  1  1.90439  1.67937  1.49885
 11166.2  10.1873  1.0  1.89939  1.67561  1.50164
 11176.2  10.178  1  1.89444  1.67173  1.51224
 11186.2  10.1688  1.0  1.88944  1.66779  1.52238
 11196.2  10.1597  1  1.88441  1.66385  1.52742
 11206.2  10.1505  1.0  1.87942  1.66002  1.52954
 11216.2  10.1414  1  1.87433  1.65613  1.52878
 11226.2  10.1322  1.0  1.86934  1.65221  1.52581
 11236.2  10.1231  1  1.86431  1.64829  1.52037
 11246.2  10.114  1.0  1.85928  1.64439  1.51691
 11256.2  10.105  1  1.85423  1.64043  1.51708
 11266.2  10.0959  1.0  1.84924  1.63646  1.52177
 11276.2  10.0868  1  1.84405  1.63249  1.52998
 11286.2  10.0778  1.0  1.83892  1.62833  1.53796
 11296.2  10.0688  1  1.83353  1.62409  1.5426
 11306.2  10.0598  1.0  1.82739  1.61915  1.54269
 11316.2  10.0508  1  1.80453  1.59945  1.52675
 11326.2  10.0419  1.0  1.818  1.6118  1.54645
 11336.2  10.0329  1  1.77596  1.57506  1.51694
 11346.2  10.024  1.0  1.79459  1.59201  1.54148
 11356.2  10.0151  1  1.5797  1.40184  1.36677
 11366.2  10.0062  1.0  1.81176  1.60833  1.57343
 11376.2  9.99728  1  1.79854  1.59705  1.56834
 11386.2  9.98841  1.0  1.8007  1.59943  1.5738
 11396.2  9.97956  1  1.79017  1.59052  1.56565
 11406.2  9.97072  1.0  1.79183  1.59246  1.57224
 11416.2  9.9619  1  1.78571  1.58749  1.57593
 11426.2  9.95309  1.0  1.78042  1.58334  1.57875
 11436.2  9.9443  1  1.77532  1.57924  1.57997