File: MEX1_29706_processed.xdi
# XDI/1.0
# Mono.d_spacing: 3.13897
# Reference.Element: Ca
# ROI.start_bin: nan
# ROI.end_bin: nan
# Element.symbol: None
# Element.edge: None
# Processing.version: spec_processing_library v0.3.5
# Column.1: energy
# Column.2: bragg
# Column.3: count_time seconds
# Column.4: i0
# Column.5: i1
# Column.6: i2
# Describe.Column.1: energy - MEX1ES01ZEB01:CALC_ENERGY_EV
# Describe.Column.2: bragg - MEX1ES01ZEB01:BRAGG_WITH_OFFSET
# Describe.Column.3: count_time - MEX1ES01ZEB01:GATE_TIME_SET
# Describe.Column.4: i0 - MEX1ES01DAQ01:ch1:S:MeanValue_RBV
# Describe.Column.5: i1 - MEX1ES01DAQ01:ch2:S:MeanValue_RBV
# Describe.Column.6: i2 - MEX1ES01DAQ01:ch3:S:MeanValue_RBV
# Samples: [417, 417, 417, 417, 417, 417]
# ///
# CaCO3
#
# xdi from default mda2xdi preset for mex1.
#--------
#  energy   bragg   count_time   i0   i1   i2
 3838.42  30.965  1  2.29781  0.309542  3.87198
 3848.42  30.8757  1.0  2.32042  0.314439  3.8111
 3858.42  30.787  1  2.34536  0.322128  3.8399
 3868.42  30.6988  1.0  2.37142  0.329744  3.85365
 3878.42  30.6111  1  2.39917  0.337715  3.86764
 3888.41  30.524  1.0  2.42752  0.346027  3.88464
 3898.41  30.4373  1  2.45636  0.355061  3.92027
 3908.41  30.3513  1.0  2.48317  0.363656  3.9355
 3918.41  30.2657  1  2.50787  0.372411  3.95993
 3928.41  30.1806  1.0  2.53144  0.380573  3.961
 3938.41  30.096  1  2.55519  0.388873  3.96171
 3948.41  30.012  1.0  2.57822  0.394733  3.86073
 3958.41  29.9284  1  2.6056  0.406853  3.9724
 3968.41  29.8453  1.0  2.63086  0.415758  3.96133
 3978.41  29.7627  1  2.65526  0.425239  3.97278
 3988.41  29.6806  1.0  2.67948  0.434326  3.95919
 3998.41  29.599  1  2.70552  0.443869  3.94974
 4008.41  29.5178  1.0  2.73324  0.4538  3.93593
 4018.41  29.4371  1  2.74226  0.46171  3.92535
 4018.66  29.4351  1.0  2.74373  0.462168  3.92835
 4018.91  29.4331  1  2.74492  0.462447  3.92757
 4019.16  29.4311  1.0  2.74604  0.462749  3.92672
 4019.41  29.4291  1  2.74721  0.463067  3.92577
 4019.66  29.4271  1.0  2.74823  0.463348  3.92573
 4019.91  29.4251  1  2.74914  0.463592  3.92525
 4020.16  29.4231  1.0  2.7501  0.463852  3.92412
 4020.41  29.4211  1  2.751  0.464156  3.92416
 4020.66  29.4191  1.0  2.75174  0.464409  3.92346
 4020.91  29.417  1  2.75262  0.464693  3.9228
 4021.16  29.415  1.0  2.75333  0.46496  3.92239
 4021.41  29.413  1  2.75409  0.465173  3.92213
 4021.66  29.411  1.0  2.75483  0.465438  3.92011
 4021.91  29.409  1  2.75556  0.46575  3.92106
 4022.16  29.407  1.0  2.75637  0.466013  3.92077
 4022.41  29.405  1  2.75706  0.466216  3.92031
 4022.66  29.403  1.0  2.75778  0.466536  3.91893
 4022.91  29.401  1  2.75844  0.466734  3.91905
 4023.16  29.399  1.0  2.75915  0.466986  3.918
 4023.41  29.397  1  2.75981  0.467247  3.91777
 4023.66  29.395  1.0  2.76041  0.467482  3.91709
 4023.91  29.393  1  2.76107  0.467736  3.91599
 4024.16  29.391  1.0  2.76175  0.467972  3.91508
 4024.41  29.389  1  2.76244  0.468195  3.91549
 4024.66  29.3869  1.0  2.76305  0.468448  3.91533
 4024.91  29.3849  1  2.7637  0.468708  3.91407
 4025.16  29.3829  1.0  2.7643  0.46894  3.91361
 4025.41  29.3809  1  2.7649  0.469159  3.91175
 4025.66  29.3789  1.0  2.7655  0.469414  3.91302
 4025.91  29.3769  1  2.76607  0.469617  3.91088
 4026.16  29.3749  1.0  2.76666  0.469864  3.91176
 4026.41  29.3729  1  2.76732  0.4701  3.91039
 4026.66  29.3709  1.0  2.76794  0.470388  3.91012
 4026.91  29.3689  1  2.76859  0.470682  3.91042
 4027.16  29.3669  1.0  2.76938  0.471084  3.91243
 4027.41  29.3649  1  2.77049  0.472114  3.92603
 4027.66  29.3629  1.0  2.77174  0.473245  3.93985
 4027.91  29.3609  1  2.77262  0.473848  3.94429
 4028.16  29.3589  1.0  2.77304  0.473918  3.94007
 4028.41  29.3569  1  2.77304  0.473348  3.92569
 4028.66  29.3549  1.0  2.77331  0.47312  3.91758
 4028.91  29.3529  1  2.77376  0.473153  3.91374
 4029.16  29.3509  1.0  2.77436  0.473286  3.91112
 4029.41  29.3489  1  2.77491  0.473494  3.90928
 4029.66  29.3469  1.0  2.77551  0.473673  3.90999
 4029.91  29.3449  1  2.77644  0.473957  3.90945
 4030.16  29.3429  1.0  2.78292  0.475154  3.91495
 4030.41  29.3409  1  2.78351  0.475345  3.91379
 4030.66  29.3389  1.0  2.78405  0.475586  3.91264
 4030.91  29.3369  1  2.78462  0.475808  3.91192
 4031.16  29.3349  1.0  2.78515  0.476043  3.91129
 4031.41  29.3329  1  2.78573  0.476221  3.91118
 4031.66  29.3309  1.0  2.78629  0.476486  3.90994
 4031.91  29.3289  1  2.78693  0.476756  3.90918
 4032.16  29.327  1.0  2.78754  0.476987  3.90849
 4032.41  29.325  1  2.78805  0.47722  3.9084
 4032.66  29.323  1.0  2.78864  0.477442  3.90652
 4032.91  29.321  1  2.78924  0.477698  3.90523
 4033.16  29.319  1.0  2.78983  0.4779  3.90595
 4033.41  29.317  1  2.79049  0.478167  3.90511
 4033.66  29.315  1.0  2.79108  0.478434  3.90313
 4033.91  29.313  1  2.79169  0.478633  3.90351
 4034.16  29.311  1.0  2.79226  0.478901  3.90265
 4034.41  29.309  1  2.79273  0.479102  3.89931
 4034.66  29.307  1.0  2.79322  0.479309  3.90025
 4034.91  29.305  1  2.79378  0.479542  3.89828
 4035.16  29.303  1.0  2.79438  0.479779  3.89628
 4035.41  29.301  1  2.79494  0.479986  3.89702
 4035.66  29.299  1.0  2.79554  0.480171  3.89526
 4035.91  29.297  1  2.79618  0.480406  3.89139
 4036.16  29.2951  1.0  2.79665  0.480571  3.8879
 4036.41  29.2931  1  2.79683  0.480081  3.86252
 4036.66  29.2911  1.0  2.79676  0.479278  3.82536
 4036.91  29.2891  1  2.79852  0.48159  3.89877
 4037.16  29.2871  1.0  2.79906  0.481698  3.89268
 4037.41  29.2851  1  2.79946  0.481755  3.88577
 4037.66  29.2831  1.0  2.7997  0.481533  3.86872
 4037.91  29.2811  1  2.79819  0.478138  3.7422
 4038.16  29.2791  1.0  2.79978  0.480306  3.80589
 4038.41  29.2772  1  2.80192  0.483531  3.9117
 4038.66  29.2752  1.0  2.80223  0.483485  3.90109
 4038.91  29.2732  1  2.80273  0.483545  3.89483
 4039.16  29.2712  1.0  2.80304  0.483329  3.87732
 4039.41  29.2692  1  2.80201  0.480803  3.77949
 4039.66  29.2672  1.0  2.80446  0.484605  3.90395
 4039.91  29.2652  1  2.80495  0.48471  3.90045
 4040.16  29.2632  1.0  2.80555  0.484936  3.89739
 4040.41  29.2613  1  2.80603  0.485151  3.89681
 4040.66  29.2593  1.0  2.80647  0.485373  3.89446
 4040.91  29.2573  1  2.80689  0.485606  3.89271
 4041.16  29.2553  1.0  2.80713  0.485772  3.89216
 4041.41  29.2533  1  2.80735  0.485987  3.88794
 4041.66  29.2513  1.0  2.80753  0.486151  3.88706
 4041.91  29.2493  1  2.80782  0.486312  3.8847
 4042.16  29.2474  1.0  2.80819  0.486529  3.88192
 4042.41  29.2454  1  2.80858  0.486765  3.88234
 4042.66  29.2434  1.0  2.80898  0.487028  3.87967
 4042.91  29.2414  1  2.80961  0.487227  3.87932
 4043.16  29.2394  1.0  2.81008  0.487502  3.87827
 4043.41  29.2374  1  2.81062  0.487723  3.87685
 4043.66  29.2355  1.0  2.81116  0.487979  3.87668
 4043.91  29.2335  1  2.81165  0.48821  3.87435
 4044.16  29.2315  1.0  2.81222  0.488468  3.87415
 4044.41  29.2295  1  2.81272  0.488701  3.87392
 4044.66  29.2275  1.0  2.81324  0.488899  3.87307
 4044.91  29.2255  1  2.81372  0.489193  3.8723
 4045.16  29.2236  1.0  2.81418  0.489409  3.87182
 4045.41  29.2216  1  2.81463  0.489652  3.87081
 4045.66  29.2196  1.0  2.81511  0.489881  3.87055
 4045.91  29.2176  1  2.81561  0.490112  3.86956
 4046.16  29.2156  1.0  2.81603  0.490297  3.86806
 4046.41  29.2137  1  2.81642  0.490575  3.86591
 4046.66  29.2117  1.0  2.8168  0.49079  3.86551
 4046.91  29.2097  1  2.81721  0.490975  3.86534
 4047.16  29.2077  1.0  2.81763  0.491206  3.86464
 4047.41  29.2057  1  2.81806  0.491473  3.86422
 4047.66  29.2038  1.0  2.81836  0.491687  3.86409
 4047.91  29.2018  1  2.81883  0.491915  3.86445
 4048.16  29.1998  1.0  2.81918  0.492054  3.86051
 4048.41  29.1978  1  2.81927  0.491587  3.83538
 4048.66  29.1959  1.0  2.81978  0.491832  3.83373
 4048.91  29.1939  1  2.82069  0.492772  3.85765
 4049.16  29.1919  1.0  2.82116  0.493062  3.8611
 4049.41  29.1899  1  2.8216  0.493297  3.86011
 4049.66  29.188  1.0  2.82208  0.493561  3.85998
 4049.91  29.186  1  2.82251  0.493812  3.86015
 4050.16  29.184  1.0  2.82292  0.494021  3.85916
 4050.41  29.182  1  2.82346  0.494261  3.85876
 4050.66  29.1801  1.0  2.82398  0.49453  3.85971
 4050.91  29.1781  1  2.82466  0.494799  3.86033
 4051.16  29.1761  1.0  2.82534  0.495112  3.85911
 4051.41  29.1741  1  2.82598  0.495307  3.85901
 4051.66  29.1722  1.0  2.82664  0.495612  3.85895
 4051.91  29.1702  1  2.82728  0.495872  3.85892
 4052.16  29.1682  1.0  2.82788  0.496123  3.85729
 4052.41  29.1662  1  2.82857  0.496404  3.85806
 4052.66  29.1643  1.0  2.8292  0.496683  3.85716
 4052.91  29.1623  1  2.82991  0.496911  3.8576
 4053.16  29.1603  1.0  2.83073  0.497212  3.85659
 4053.41  29.1583  1  2.83155  0.497512  3.8559
 4053.66  29.1564  1.0  2.83235  0.497814  3.85579
 4053.91  29.1544  1  2.83305  0.498092  3.85448
 4054.16  29.1524  1.0  2.83374  0.498384  3.85345
 4054.41  29.1505  1  2.83454  0.498674  3.85291
 4054.66  29.1485  1.0  2.83518  0.498943  3.85317
 4054.91  29.1465  1  2.83599  0.499211  3.85249
 4055.16  29.1446  1.0  2.83642  0.499152  3.84022
 4055.41  29.1426  1  2.83682  0.499063  3.82611
 4055.66  29.1406  1.0  2.83754  0.499473  3.83065
 4055.91  29.1386  1  2.83846  0.500211  3.84923
 4056.16  29.1367  1.0  2.83903  0.500505  3.84801
 4056.41  29.1347  1  2.83954  0.500575  3.83967
 4056.66  29.1327  1.0  2.8398  0.500328  3.82275
 4056.91  29.1308  1  2.84058  0.500686  3.82539
 4057.16  29.1288  1.0  2.84153  0.501526  3.84641
 4057.41  29.1268  1  2.84217  0.501806  3.84401
 4057.66  29.1249  1.0  2.84272  0.50209  3.84484
 4057.91  29.1229  1  2.84331  0.502365  3.84522
 4058.16  29.1209  1.0  2.84393  0.502649  3.84424
 4058.41  29.119  1  2.84463  0.502923  3.84289
 4058.66  29.117  1.0  2.84527  0.503159  3.84311
 4058.91  29.115  1  2.84593  0.503427  3.84253
 4059.16  29.1131  1.0  2.84662  0.503705  3.84218
 4059.41  29.1111  1  2.84723  0.503959  3.84256
 4059.66  29.1091  1.0  2.84789  0.504241  3.84173
 4059.91  29.1072  1  2.84843  0.504482  3.84133
 4060.16  29.1052  1.0  2.84898  0.504748  3.84056
 4060.41  29.1033  1  2.84959  0.50504  3.83976
 4060.66  29.1013  1.0  2.85014  0.50525  3.84004
 4060.91  29.0993  1  2.8542  0.50611  3.8428
 4061.16  29.0974  1.0  2.85778  0.506844  3.84433
 4061.41  29.0954  1  2.85839  0.507138  3.8446
 4061.66  29.0934  1.0  2.85901  0.507445  3.84332
 4061.91  29.0915  1  2.85962  0.507658  3.84341
 4062.16  29.0895  1.0  2.86021  0.507914  3.84323
 4062.41  29.0876  1  2.86089  0.508239  3.84356
 4062.66  29.0856  1.0  2.86159  0.508455  3.84313
 4062.91  29.0836  1  2.86221  0.508757  3.84247
 4063.16  29.0817  1.0  2.86285  0.508969  3.84137
 4063.41  29.0797  1  2.86324  0.508968  3.82992
 4063.66  29.0778  1.0  2.86376  0.508899  3.81666
 4063.91  29.0758  1  2.86442  0.509344  3.82413
 4064.16  29.0738  1.0  2.8653  0.51005  3.83842
 4064.41  29.0719  1  2.86602  0.510349  3.83933
 4064.66  29.0699  1.0  2.86657  0.51062  3.83923
 4064.91  29.068  1  2.86729  0.510885  3.83835
 4065.16  29.066  1.0  2.86796  0.511198  3.83888
 4065.41  29.064  1  2.86861  0.511448  3.83879
 4065.66  29.0621  1.0  2.86925  0.511693  3.83861
 4065.91  29.0601  1  2.86983  0.51195  3.83772
 4066.16  29.0582  1.0  2.87039  0.512231  3.83678
 4066.41  29.0562  1  2.871  0.512503  3.83627
 4066.66  29.0543  1.0  2.87149  0.512769  3.83612
 4066.91  29.0523  1  2.87209  0.513034  3.83591
 4067.15  29.0503  1.0  2.87271  0.513299  3.83514
 4067.41  29.0484  1  2.87338  0.513574  3.83592
 4067.66  29.0464  1.0  2.87399  0.513858  3.83521
 4067.91  29.0445  1  2.87448  0.514118  3.83393
 4068.15  29.0425  1.0  2.87514  0.514363  3.83326
 4068.41  29.0406  1  2.87562  0.514586  3.83371
 4068.66  29.0386  1.0  2.87625  0.514885  3.83231
 4068.91  29.0367  1  2.8769  0.51515  3.83164
 4069.15  29.0347  1.0  2.8774  0.515364  3.83117
 4069.41  29.0327  1  2.87793  0.51564  3.83022
 4069.66  29.0308  1.0  2.87839  0.515917  3.82969
 4069.91  29.0288  1  2.87899  0.516132  3.82876
 4070.15  29.0269  1.0  2.87953  0.5164  3.82843
 4070.41  29.0249  1  2.88015  0.516658  3.82806
 4070.66  29.023  1.0  2.88088  0.516947  3.82752
 4070.91  29.021  1  2.88149  0.517214  3.82671
 4071.15  29.0191  1.0  2.88207  0.5175  3.82567
 4071.41  29.0171  1  2.88264  0.517769  3.8253
 4071.66  29.0152  1.0  2.88318  0.518026  3.82333
 4071.91  29.0132  1  2.88373  0.518292  3.82401
 4072.15  29.0113  1.0  2.88423  0.518558  3.82384
 4072.41  29.0093  1  2.88486  0.518807  3.82232
 4072.66  29.0074  1.0  2.88537  0.519031  3.82252
 4072.91  29.0054  1  2.88606  0.519324  3.82148
 4073.15  29.0035  1.0  2.88654  0.519616  3.8199
 4073.41  29.0015  1  2.88717  0.519867  3.81959
 4073.66  28.9996  1.0  2.88766  0.52013  3.81897
 4073.91  28.9976  1  2.88819  0.520344  3.81805
 4074.15  28.9957  1.0  2.88871  0.520626  3.81763
 4074.41  28.9937  1  2.88927  0.520896  3.81734
 4074.66  28.9918  1.0  2.88977  0.521115  3.81753
 4074.91  28.9898  1  2.8903  0.521405  3.81535
 4075.15  28.9879  1.0  2.89078  0.521655  3.81277
 4075.4  28.9859  1  2.89135  0.521908  3.81284
 4075.66  28.984  1.0  2.8919  0.522173  3.8123
 4075.91  28.982  1  2.89234  0.5224  3.81116
 4076.15  28.9801  1.0  2.8928  0.522655  3.81078
 4076.4  28.9782  1  2.89328  0.522931  3.81008
 4076.66  28.9762  1.0  2.8938  0.523148  3.8092
 4076.91  28.9743  1  2.89443  0.52346  3.80833
 4077.15  28.9723  1.0  2.89488  0.523664  3.80708
 4077.4  28.9704  1  2.89537  0.523911  3.80683
 4077.66  28.9684  1.0  2.89584  0.524213  3.80658
 4077.91  28.9665  1  2.89629  0.524421  3.80587
 4078.15  28.9645  1.0  2.8968  0.524686  3.80454
 4078.4  28.9626  1  2.89727  0.524932  3.80489
 4078.65  28.9607  1.0  2.89778  0.525181  3.80479
 4078.9  28.9587  1  2.89825  0.525455  3.80466
 4079.15  28.9568  1.0  2.89874  0.52567  3.80486
 4079.41  28.9548  1  2.89935  0.525975  3.80383
 4079.65  28.9529  1.0  2.89981  0.526185  3.80298
 4079.91  28.9509  1  2.90035  0.526494  3.80271
 4080.15  28.949  1.0  2.9008  0.526722  3.80174
 4080.4  28.9471  1  2.90139  0.526984  3.80088
 4080.65  28.9451  1.0  2.90192  0.527224  3.80082
 4080.9  28.9432  1  2.90242  0.527497  3.79818
 4081.15  28.9412  1.0  2.90295  0.527748  3.79742
 4081.4  28.9393  1  2.9034  0.528037  3.79743
 4081.66  28.9373  1.0  2.9039  0.528286  3.79649
 4081.9  28.9354  1  2.90434  0.52852  3.79606
 4082.15  28.9335  1.0  2.90489  0.528778  3.79487
 4082.4  28.9315  1  2.9053  0.528983  3.7936
 4082.65  28.9296  1.0  2.90588  0.529271  3.79453
 4082.9  28.9277  1  2.90638  0.529532  3.79358
 4083.15  28.9257  1.0  2.90686  0.529787  3.79279
 4083.4  28.9238  1  2.90738  0.530083  3.79162
 4083.65  28.9218  1.0  2.90793  0.530298  3.79113
 4083.9  28.9199  1  2.90837  0.530549  3.78989
 4084.15  28.918  1.0  2.90889  0.530821  3.7894
 4084.4  28.916  1  2.90932  0.531079  3.78937
 4084.65  28.9141  1.0  2.90973  0.531303  3.78788
 4084.9  28.9122  1  2.91024  0.531568  3.78759
 4085.15  28.9102  1.0  2.91064  0.531807  3.78551
 4085.4  28.9083  1  2.91107  0.532048  3.78672
 4085.65  28.9063  1.0  2.91154  0.532331  3.78483
 4085.9  28.9044  1  2.91203  0.532557  3.78429
 4086.15  28.9025  1.0  2.91254  0.532824  3.78366
 4086.4  28.9005  1  2.91312  0.533086  3.78302
 4086.65  28.8986  1.0  2.91367  0.533356  3.78181
 4086.9  28.8967  1  2.91415  0.533629  3.78203
 4087.15  28.8947  1.0  2.91463  0.533862  3.78154
 4087.4  28.8928  1  2.91502  0.5341  3.78077
 4087.65  28.8909  1.0  2.91544  0.53435  3.77957
 4087.9  28.8889  1  2.91594  0.534591  3.77873
 4088.15  28.887  1.0  2.91642  0.534867  3.77865
 4088.4  28.8851  1  2.91696  0.535123  3.77737
 4098.4  28.808  1.0  2.93891  0.545821  3.74772
 4108.4  28.7313  1  2.96098  0.556457  3.70698
 4118.4  28.6551  1.0  2.98324  0.567815  3.68753
 4128.4  28.5793  1  3.00539  0.579109  3.65367
 4138.4  28.5039  1.0  3.02837  0.590838  3.62748
 4148.4  28.4289  1  3.05098  0.602563  3.58946
 4158.4  28.3544  1.0  3.07397  0.614514  3.55368
 4168.4  28.2802  1  3.09684  0.62671  3.51572
 4178.4  28.2065  1.0  3.11948  0.639017  3.47705
 4188.4  28.1331  1  3.14915  0.652891  3.43962
 4198.4  28.0602  1.0  3.16898  0.664787  3.38468
 4208.4  27.9876  1  3.18464  0.67644  3.34313
 4218.4  27.9155  1.0  3.08167  0.662837  3.18787
 4228.4  27.8437  1  3.2511  0.706757  3.24591
 4238.4  27.7723  1.0  3.26584  0.719121  3.21543
 4248.39  27.7013  1  3.28487  0.732263  3.1721
 4258.39  27.6307  1.0  3.3042  0.745505  3.12189
 4268.39  27.5605  1  3.32404  0.759084  3.07259
 4278.39  27.4906  1.0  3.34455  0.772851  3.01909
 4288.39  27.4211  1  3.36574  0.787097  2.96791
 4298.39  27.352  1.0  3.38619  0.801551  2.92308
 4308.39  27.2832  1  3.40678  0.81612  2.87121
 4318.39  27.2148  1.0  3.42694  0.830688  2.81561
 4328.39  27.1468  1  3.44612  0.844985  2.74796
 4338.39  27.0791  1.0  3.46581  0.859767  2.68743
 4348.39  27.0117  1  3.48543  0.875289  2.64963
 4358.39  26.9447  1.0  3.50461  0.89057  2.59706
 4368.39  26.8781  1  3.5243  0.906418  2.55483
 4378.39  26.8118  1.0  3.54387  0.922563  2.51607
 4388.39  26.7458  1  3.56158  0.937151  2.42303
 4398.39  26.6802  1.0  3.58104  0.954377  2.41555
 4408.39  26.6149  1  3.59954  0.970589  2.36457
 4418.38  26.55  1.0  3.61732  0.98669  2.30959
 4428.38  26.4853  1  3.63464  1.00289  2.2557
 4438.38  26.421  1.0  3.65238  1.01961  2.20877
 4448.38  26.357  1  3.67087  1.03685  2.16779
 4458.38  26.2934  1.0  3.68947  1.05445  2.13204
 4468.38  26.2301  1  3.7077  1.07195  2.08841
 4478.38  26.167  1.0  3.72553  1.08945  2.04254
 4488.38  26.1043  1  3.74311  1.10715  1.99962
 4498.38  26.042  1.0  3.76141  1.12549  1.96737
 4508.38  25.9799  1  3.7786  1.14369  1.93435
 4518.38  25.9181  1.0  3.79466  1.16165  1.89022
 4528.38  25.8566  1  3.81135  1.17982  1.85163
 4538.38  25.7955  1.0  3.82847  1.19868  1.82087
 4548.38  25.7346  1  3.84485  1.21731  1.78359
 4558.38  25.674  1.0  3.85962  1.23522  1.72919
 4568.38  25.6138  1  3.87534  1.25386  1.68548
 4578.38  25.5538  1.0  3.89117  1.27284  1.64906
 4588.38  25.4941  1  3.90597  1.29156  1.60863
 4598.375  25.4347  1.0  3.92044  1.31035  1.56821
 4608.37  25.3756  1  3.93608  1.32982  1.53643
 4618.37  25.3168  1.0  3.95183  1.34966  1.5058
 4628.37  25.2582  1  3.9675  1.36945  1.47325
 4638.37  25.2  1.0  3.94687  1.37686  1.42669
 4648.37  25.142  1  3.99266  1.40756  1.40879
 4658.37  25.0843  1.0  4.00966  1.42858  1.38777
 4668.37  25.0268  1  4.02587  1.44959  1.36802
 4678.37  24.9697  1.0  4.04004  1.46966  1.33678
 4688.37  24.9128  1  4.05413  1.48995  1.30421
 4698.37  24.8562  1.0  4.067  1.50983  1.26734
 4708.37  24.7998  1  4.07868  1.52936  1.23023
 4718.37  24.7437  1.0  4.09137  1.54953  1.19941
 4728.37  24.6879  1  4.10493  1.57024  1.17129
 4738.37  24.6323  1.0  4.1181  1.59082  1.13916
 4748.37  24.577  1  4.13085  1.61159  1.11391
 4758.37  24.522  1.0  4.14452  1.6328  1.0918
 4768.37  24.4671  1  4.1566  1.65355  1.06704
 4778.36  24.4126  1.0  4.16852  1.6743  1.0392
 4788.36  24.3583  1  4.18053  1.69529  1.01738
 4798.36  24.3043  1.0  4.19207  1.71628  1.00264
 4808.36  24.2505  1  4.20411  1.73777  0.991813
 4818.36  24.1969  1.0  4.21588  1.75933  0.984112
 4828.36  24.1436  1  4.22761  1.78103  0.980949
 4838.36  24.0905  1.0  4.23955  1.803  0.983828
 4848.36  24.0377  1  4.25177  1.82531  0.98911
 4858.36  23.9851  1.0  4.26309  1.84739  0.996297
 4868.36  23.9328  1  4.27469  1.86968  1.00733
 4878.36  23.8807  1.0  4.28615  1.89215  1.02055
 4888.36  23.8288  1  4.29685  1.91436  1.03645
 4898.36  23.7771  1.0  4.30692  1.93649  1.05473
 4908.35  23.7257  1  4.31625  1.95835  1.07641
 4918.36  23.6745  1.0  4.32573  1.98045  1.10103
 4928.35  23.6236  1  4.33467  2.00248  1.12789
 4938.35  23.5728  1.0  4.34451  2.02504  1.16175
 4948.35  23.5223  1  4.35416  2.04769  1.1935
 4958.35  23.4721  1.0  4.36386  2.07036  1.23092
 4968.35  23.422  1  4.37354  2.09323  1.27065
 4978.35  23.3722  1.0  4.38119  2.11521  1.31143
 4988.35  23.3225  1  4.38877  2.13721  1.35399
 4998.35  23.2731  1.0  4.39829  2.16023  1.39964
 5008.35  23.2239  1  4.40664  2.18284  1.44577
 5018.35  23.1749  1.0  4.41564  2.20577  1.49352
 5028.35  23.1262  1  4.42456  2.22885  1.54246
 5038.35  23.0776  1.0  4.43221  2.25127  1.59117
 5048.35  23.0293  1  4.43892  2.27327  1.64126
 5058.35  22.9811  1.0  4.44642  2.2958  1.69288
 5068.34  22.9332  1  4.45269  2.31766  1.74608
 5078.34  22.8855  1.0  4.46012  2.3403  1.80168
 5088.34  22.838  1  4.4683  2.36333  1.85957
 5098.34  22.7907  1.0  4.47512  2.38583  1.91775
 5108.34  22.7435  1  4.48176  2.40813  1.97916
 5118.34  22.6966  1.0  4.48975  2.43132  2.04221
 5128.34  22.6499  1  4.49739  2.45433  2.10796
 5138.34  22.6034  1.0  4.50469  2.47731  2.17518
 5148.34  22.5571  1  4.5122  2.50036  2.24433
 5158.34  22.5109  1.0  4.51835  2.52281  2.31469
 5168.34  22.465  1  4.52463  2.54529  2.38638
 5178.34  22.4193  1.0  4.53191  2.56842  2.46078
 5188.34  22.3737  1  4.53771  2.59083  2.53683
 5198.34  22.3284  1.0  4.54267  2.61271  2.61329
 5208.34  22.2832  1  4.54823  2.63504  2.69117
 5218.33  22.2382  1.0  4.55373  2.65734  2.77266
 5228.33  22.1934  1  4.55886  2.67938  2.85473
 5238.33  22.1488  1.0  4.56349  2.70126  2.93768
 5248.33  22.1044  1  4.56735  2.72266  3.02266
 5258.33  22.0601  1.0  4.57402  2.74583  3.11118
 5268.33  22.0161  1  4.57925  2.76814  3.20153