File: MEX1_29695_processed.xdi
# XDI/1.0
# Mono.d_spacing: 3.13897
# Reference.Element: Cu
# ROI.start_bin: nan
# ROI.end_bin: nan
# Element.symbol: None
# Element.edge: None
# Processing.version: spec_processing_library v0.3.5
# Column.1: energy
# Column.2: bragg
# Column.3: count_time seconds
# Column.4: i0
# Column.5: i1
# Column.6: i2
# Describe.Column.1: energy - MEX1ES01ZEB01:CALC_ENERGY_EV
# Describe.Column.2: bragg - MEX1ES01ZEB01:BRAGG_WITH_OFFSET
# Describe.Column.3: count_time - MEX1ES01ZEB01:GATE_TIME_SET
# Describe.Column.4: i0 - MEX1ES01DAQ01:ch1:S:MeanValue_RBV
# Describe.Column.5: i1 - MEX1ES01DAQ01:ch2:S:MeanValue_RBV
# Describe.Column.6: i2 - MEX1ES01DAQ01:ch3:S:MeanValue_RBV
# Samples: [417, 417, 417, 417, 417, 417]
# ///
# Cu foil
#
# xdi from default mda2xdi preset for mex1.
#--------
#  energy   bragg   count_time   i0   i1   i2
 8778.49  13.0013  1.0  3.29168  2.55069  2.66804
 8788.51  12.9862  1  3.28443  2.54733  2.67035
 8798.51  12.9712  1.0  3.27742  2.54401  2.67278
 8808.51  12.9562  1  3.27035  2.54075  2.6751
 8818.51  12.9412  1.0  3.26342  2.53748  2.67751
 8828.51  12.9263  1  3.25655  2.53431  2.67977
 8838.51  12.9115  1.0  3.24973  2.53116  2.68212
 8848.51  12.8966  1  3.24289  2.52793  2.68436
 8858.5  12.8818  1.0  3.23604  2.52472  2.68645
 8868.5  12.867  1  3.22914  2.52147  2.68833
 8878.5  12.8523  1.0  3.22218  2.51807  2.69027
 8888.5  12.8376  1  3.21532  2.51483  2.69181
 8898.5  12.8229  1.0  3.20824  2.51136  2.69312
 8908.5  12.8083  1  3.20051  2.50739  2.69335
 8918.5  12.7937  1.0  3.1813  2.4944  2.68348
 8928.5  12.7791  1  3.19078  2.5039  2.69718
 8938.49  12.7646  1.0  3.18297  2.49974  2.69497
 8948.49  12.7501  1  3.17572  2.49602  2.69108
 8958.49  12.7356  1.0  3.16608  2.49041  2.67949
 8958.73  12.7353  1  3.16451  2.48926  2.67812
 8958.98  12.7349  1.0  3.16239  2.48763  2.67609
 8959.23  12.7345  1  3.16064  2.48637  2.67436
 8959.48  12.7342  1.0  3.1598  2.48572  2.67344
 8959.73  12.7338  1  3.1595  2.48561  2.67297
 8959.98  12.7334  1.0  3.15993  2.48599  2.67303
 8960.23  12.7331  1  3.16189  2.48751  2.67445
 8960.48  12.7327  1.0  3.16409  2.48927  2.67594
 8960.73  12.7324  1  3.16522  2.49023  2.67661
 8960.98  12.732  1.0  3.16552  2.49053  2.67667
 8961.23  12.7316  1  3.16558  2.49063  2.6764
 8961.48  12.7313  1.0  3.16543  2.49061  2.67596
 8961.73  12.7309  1  3.16542  2.49057  2.67548
 8961.98  12.7306  1.0  3.16526  2.49048  2.67508
 8962.23  12.7302  1  3.16514  2.49046  2.67458
 8962.48  12.7298  1.0  3.16496  2.49035  2.67395
 8962.73  12.7295  1  3.16472  2.49019  2.67338
 8962.98  12.7291  1.0  3.16448  2.49011  2.67278
 8963.23  12.7288  1  3.1643  2.49  2.67223
 8963.48  12.7284  1.0  3.16407  2.48984  2.67152
 8963.73  12.728  1  3.16385  2.4897  2.67079
 8963.98  12.7277  1.0  3.16369  2.48968  2.67029
 8964.23  12.7273  1  3.16348  2.48951  2.66951
 8964.48  12.727  1.0  3.16323  2.4894  2.66878
 8964.73  12.7266  1  3.16296  2.48922  2.66798
 8964.98  12.7262  1.0  3.16257  2.48896  2.66707
 8965.23  12.7259  1  3.1621  2.48857  2.66605
 8965.48  12.7255  1.0  3.16112  2.48792  2.66459
 8965.73  12.7251  1  3.15968  2.4868  2.66274
 8965.98  12.7248  1.0  3.15738  2.48512  2.66023
 8966.23  12.7244  1  3.15517  2.48336  2.65759
 8966.48  12.7241  1.0  3.15392  2.48239  2.65572
 8966.73  12.7237  1  3.15354  2.48218  2.65465
 8966.98  12.7233  1.0  3.15361  2.48228  2.65395
 8967.23  12.723  1  3.15465  2.48322  2.65395
 8967.48  12.7226  1.0  3.15661  2.48479  2.65472
 8967.73  12.7223  1  3.15823  2.48609  2.65522
 8967.98  12.7219  1.0  3.15879  2.48665  2.65466
 8968.23  12.7215  1  3.15905  2.48683  2.65387
 8968.48  12.7212  1.0  3.15895  2.48677  2.65267
 8968.73  12.7208  1  3.15887  2.48672  2.65155
 8968.98  12.7205  1.0  3.15864  2.4867  2.65023
 8969.23  12.7201  1  3.15856  2.48661  2.64895
 8969.48  12.7197  1.0  3.1582  2.48645  2.64735
 8969.73  12.7194  1  3.15807  2.48639  2.64595
 8969.98  12.719  1.0  3.15787  2.48622  2.64429
 8970.23  12.7187  1  3.15769  2.4862  2.64264
 8970.48  12.7183  1.0  3.15756  2.48606  2.64094
 8970.73  12.7179  1  3.1574  2.48608  2.6392
 8970.98  12.7176  1.0  3.15713  2.48589  2.63727
 8971.23  12.7172  1  3.15693  2.48576  2.63515
 8971.48  12.7169  1.0  3.15667  2.48566  2.63307
 8971.73  12.7165  1  3.15638  2.48549  2.63074
 8971.98  12.7161  1.0  3.15628  2.48527  2.62834
 8972.23  12.7158  1  3.15602  2.4852  2.6258
 8972.48  12.7154  1.0  3.15583  2.48504  2.62318
 8972.73  12.7151  1  3.15553  2.48495  2.62041
 8972.98  12.7147  1.0  3.15526  2.48483  2.61736
 8973.23  12.7143  1  3.15508  2.48463  2.61411
 8973.48  12.714  1.0  3.15476  2.48453  2.61051
 8973.73  12.7136  1  3.15455  2.48442  2.60693
 8973.98  12.7133  1.0  3.15437  2.48424  2.60305
 8974.23  12.7129  1  3.15427  2.4842  2.59892
 8974.48  12.7125  1.0  3.1539  2.48411  2.59433
 8974.73  12.7122  1  3.15381  2.48399  2.58942
 8974.98  12.7118  1.0  3.15351  2.48385  2.58395
 8975.23  12.7115  1  3.15334  2.48368  2.57794
 8975.48  12.7111  1.0  3.153  2.48357  2.57145
 8975.73  12.7107  1  3.15282  2.48333  2.56432
 8975.98  12.7104  1.0  3.15247  2.48325  2.55627
 8976.23  12.71  1  3.15215  2.48303  2.54743
 8976.48  12.7097  1.0  3.15197  2.4829  2.53743
 8976.73  12.7093  1  3.15164  2.48269  2.52631
 8976.98  12.7089  1.0  3.15149  2.48255  2.5135
 8977.23  12.7086  1  3.15135  2.48247  2.49878
 8977.48  12.7082  1.0  3.15097  2.48228  2.48186
 8977.73  12.7079  1  3.15075  2.4822  2.46187
 8977.98  12.7075  1.0  3.15052  2.48209  2.4384
 8978.23  12.7071  1  3.15018  2.48183  2.40977
 8978.48  12.7068  1.0  3.14995  2.48165  2.37506
 8978.73  12.7064  1  3.14967  2.48155  2.33185
 8978.98  12.7061  1.0  3.14948  2.48141  2.27715
 8979.23  12.7057  1  3.14914  2.48121  2.20838
 8979.48  12.7053  1.0  3.14883  2.48106  2.12158
 8979.73  12.705  1  3.14865  2.48085  2.01597
 8979.98  12.7046  1.0  3.14828  2.48067  1.89111
 8980.23  12.7043  1  3.14806  2.4806  1.7515
 8980.48  12.7039  1.0  3.14768  2.48029  1.60823
 8980.73  12.7035  1  3.14733  2.48009  1.47249
 8980.98  12.7032  1.0  3.14705  2.47993  1.35496
 8981.23  12.7028  1  3.1467  2.47967  1.26113
 8981.48  12.7025  1.0  3.14641  2.47956  1.1917
 8981.73  12.7021  1  3.14609  2.47939  1.14343
 8981.98  12.7017  1.0  3.14597  2.47934  1.11164
 8982.23  12.7014  1  3.14586  2.47929  1.09213
 8982.48  12.701  1.0  3.14549  2.47909  1.08236
 8982.73  12.7007  1  3.1453  2.47889  1.08032
 8982.98  12.7003  1.0  3.14505  2.47877  1.08437
 8983.23  12.6999  1  3.14482  2.47866  1.09303
 8983.48  12.6996  1.0  3.14438  2.47837  1.10408
 8983.73  12.6992  1  3.14915  2.48212  1.11753
 8983.98  12.6989  1.0  3.15148  2.48404  1.12858
 8984.23  12.6985  1  3.15114  2.48388  1.13549
 8984.48  12.6981  1.0  3.15098  2.48375  1.13758
 8984.73  12.6978  1  3.1507  2.48359  1.13414
 8984.98  12.6974  1.0  3.15041  2.48343  1.12483
 8985.23  12.6971  1  3.15022  2.48325  1.11065
 8985.48  12.6967  1.0  3.14988  2.48303  1.0922
 8985.73  12.6964  1  3.14974  2.48298  1.07177
 8985.98  12.696  1.0  3.14949  2.48281  1.05035
 8986.23  12.6956  1  3.1493  2.48276  1.02948
 8986.48  12.6953  1.0  3.14898  2.48252  1.01015
 8986.73  12.6949  1  3.14881  2.48256  0.992025
 8986.98  12.6946  1.0  3.14857  2.48239  0.975016
 8987.23  12.6942  1  3.14831  2.48215  0.958644
 8987.48  12.6938  1.0  3.14793  2.48193  0.941951
 8987.73  12.6935  1  3.14787  2.48191  0.924792
 8987.98  12.6931  1.0  3.14762  2.4817  0.906778
 8988.23  12.6928  1  3.14735  2.48161  0.8876
 8988.48  12.6924  1.0  3.147  2.4814  0.867178
 8988.73  12.692  1  3.14687  2.48121  0.845528
 8988.98  12.6917  1.0  3.14653  2.48112  0.822661
 8989.23  12.6913  1  3.14627  2.48096  0.798874
 8989.48  12.691  1.0  3.14598  2.4808  0.774009
 8989.73  12.6906  1  3.14572  2.48064  0.7483
 8989.98  12.6903  1.0  3.14549  2.48054  0.72224
 8990.23  12.6899  1  3.14526  2.48037  0.695661
 8990.48  12.6895  1.0  3.14504  2.48028  0.66881
 8990.73  12.6892  1  3.14484  2.48004  0.641897
 8990.98  12.6888  1.0  3.14454  2.47994  0.615285
 8991.23  12.6885  1  3.14428  2.47982  0.589186
 8991.48  12.6881  1.0  3.14399  2.47963  0.564218
 8991.73  12.6877  1  3.14376  2.47948  0.540341
 8991.98  12.6874  1.0  3.14343  2.47926  0.517956
 8992.23  12.687  1  3.1431  2.47909  0.497058
 8992.48  12.6867  1.0  3.14293  2.47894  0.477659
 8992.73  12.6863  1  3.14268  2.47888  0.459821
 8992.98  12.6859  1.0  3.14251  2.47869  0.443444
 8993.23  12.6856  1  3.14227  2.47852  0.428896
 8993.48  12.6852  1.0  3.14195  2.47838  0.416014
 8993.73  12.6849  1  3.14173  2.47828  0.404921
 8993.98  12.6845  1.0  3.14141  2.47803  0.39584
 8994.23  12.6842  1  3.14112  2.47787  0.388674
 8994.48  12.6838  1.0  3.14091  2.47773  0.383515
 8994.73  12.6834  1  3.14057  2.47749  0.38042
 8994.98  12.6831  1.0  3.1403  2.47739  0.379277
 8995.23  12.6827  1  3.14003  2.47717  0.379939
 8995.48  12.6824  1.0  3.13972  2.47695  0.382115
 8995.73  12.682  1  3.1395  2.47684  0.385737
 8995.98  12.6817  1.0  3.13913  2.47665  0.390372
 8996.23  12.6813  1  3.13888  2.4765  0.395922
 8996.48  12.6809  1.0  3.13859  2.47629  0.401995
 8996.73  12.6806  1  3.13835  2.47609  0.408474
 8996.98  12.6802  1.0  3.13778  2.47582  0.415188
 8997.23  12.6799  1  3.13752  2.47563  0.421924
 8997.48  12.6795  1.0  3.13726  2.47533  0.428647
 8997.73  12.6791  1  3.13685  2.47511  0.435119
 8997.98  12.6788  1.0  3.13648  2.47494  0.441312
 8998.23  12.6784  1  3.13614  2.47476  0.447037
 8998.48  12.6781  1.0  3.1357  2.47438  0.452115
 8998.73  12.6777  1  3.1353  2.47405  0.456448
 8998.98  12.6774  1.0  3.13473  2.47378  0.460027
 8999.23  12.677  1  3.13418  2.4733  0.462592
 8999.48  12.6766  1.0  3.13358  2.4729  0.464158
 8999.73  12.6763  1  3.13283  2.47234  0.464608
 8999.98  12.6759  1.0  3.13181  2.47165  0.463864
 9000.23  12.6756  1  3.13058  2.47074  0.461782
 9000.48  12.6752  1.0  3.12856  2.46916  0.458459
 9000.73  12.6748  1  3.12487  2.46634  0.453678
 9000.98  12.6745  1.0  3.11845  2.46123  0.447355
 9001.23  12.6741  1  3.10846  2.45342  0.439569
 9001.48  12.6738  1.0  3.09384  2.44192  0.430267
 9001.73  12.6734  1  3.07647  2.42835  0.41998
 9001.98  12.6731  1.0  3.07031  2.42359  0.410663
 9002.23  12.6727  1  3.07874  2.43026  0.403199
 9002.48  12.6723  1.0  3.09192  2.4407  0.396369
 9002.73  12.672  1  3.10507  2.45107  0.389962
 9002.98  12.6716  1.0  3.11777  2.46119  0.384147
 9003.23  12.6713  1  3.12604  2.46772  0.37878
 9003.48  12.6709  1.0  3.12854  2.46977  0.373865
 9003.73  12.6706  1  3.12843  2.46966  0.369965
 9003.98  12.6702  1.0  3.1279  2.46938  0.367557
 9004.23  12.6698  1  3.12683  2.46852  0.366596
 9004.48  12.6695  1.0  3.12499  2.46714  0.367083
 9004.73  12.6691  1  3.12116  2.46416  0.368651
 9004.98  12.6688  1.0  3.11458  2.45904  0.371045
 9005.23  12.6684  1  3.10382  2.45062  0.373972
 9005.48  12.6681  1.0  3.08876  2.4387  0.377127
 9005.73  12.6677  1  3.07191  2.42541  0.380712
 9005.98  12.6673  1.0  3.06367  2.41909  0.385772
 9006.23  12.667  1  3.06652  2.42133  0.392419
 9006.48  12.6666  1.0  3.07102  2.42484  0.399292
 9006.73  12.6663  1  3.07148  2.42536  0.405571
 9006.98  12.6659  1.0  3.06753  2.42226  0.410975
 9007.23  12.6655  1  3.06337  2.41911  0.416104
 9007.48  12.6652  1.0  3.0679  2.42267  0.422085
 9007.73  12.6648  1  3.07989  2.43221  0.428739
 9007.98  12.6645  1.0  3.09347  2.44287  0.4352
 9008.23  12.6641  1  3.10686  2.45354  0.441427
 9008.48  12.6638  1.0  3.11925  2.46342  0.447297
 9008.73  12.6634  1  3.1265  2.46918  0.452297
 9008.98  12.663  1.0  3.12826  2.47053  0.456563
 9009.23  12.6627  1  3.12815  2.47051  0.460612
 9009.48  12.6623  1.0  3.12746  2.47001  0.464637
 9009.73  12.662  1  3.12637  2.46923  0.46871
 9009.98  12.6616  1.0  3.12447  2.46777  0.472704
 9010.23  12.6613  1  3.12076  2.46498  0.476429
 9010.48  12.6609  1.0  3.1142  2.45975  0.479568
 9010.73  12.6605  1  3.1043  2.452  0.481943
 9010.98  12.6602  1.0  3.09002  2.44072  0.483383
 9011.23  12.6598  1  3.0741  2.42823  0.484023
 9011.48  12.6595  1.0  3.06829  2.42355  0.485874
 9011.73  12.6591  1  3.07589  2.42966  0.489359
 9011.98  12.6588  1.0  3.08846  2.43974  0.493062
 9012.23  12.6584  1  3.10123  2.44987  0.496377
 9012.47  12.6581  1.0  3.11386  2.45983  0.49912
 9012.73  12.6577  1  3.12303  2.46717  0.50085
 9012.98  12.6573  1.0  3.1265  2.46997  0.501348
 9013.23  12.657  1  3.1274  2.47069  0.501079
 9013.48  12.6566  1.0  3.12747  2.4708  0.50045
 9013.73  12.6563  1  3.12747  2.47081  0.499605
 9013.98  12.6559  1.0  3.1272  2.47071  0.498542
 9014.23  12.6556  1  3.12696  2.47051  0.497364
 9014.48  12.6552  1.0  3.12669  2.47039  0.49607
 9014.73  12.6548  1  3.12642  2.47019  0.494683
 9014.98  12.6545  1.0  3.12799  2.47149  0.493429
 9015.23  12.6541  1  3.13331  2.47571  0.492697
 9015.48  12.6538  1.0  3.13312  2.47557  0.490948
 9015.73  12.6534  1  3.13279  2.47549  0.489054
 9015.98  12.6531  1.0  3.1325  2.4752  0.486946
 9016.23  12.6527  1  3.13206  2.47489  0.484672
 9016.48  12.6523  1.0  3.13205  2.47504  0.482261
 9016.73  12.652  1  3.13177  2.47485  0.479622
 9016.98  12.6516  1.0  3.13145  2.47463  0.476822
 9017.23  12.6513  1  3.131  2.47432  0.47382
 9017.48  12.6509  1.0  3.131  2.47433  0.47069
 9017.72  12.6506  1  3.13069  2.47411  0.467357
 9017.97  12.6502  1.0  3.13046  2.47407  0.463925
 9018.23  12.6498  1  3.1301  2.47372  0.460341
 9018.48  12.6495  1.0  3.13001  2.47373  0.456739
 9018.73  12.6491  1  3.12981  2.47363  0.452987
 9018.98  12.6488  1.0  3.12948  2.47349  0.44924
 9019.23  12.6484  1  3.12916  2.47319  0.44544
 9019.48  12.6481  1.0  3.12895  2.47311  0.441719
 9019.72  12.6477  1  3.12875  2.47306  0.438072
 9019.97  12.6474  1.0  3.12854  2.47288  0.434448
 9020.22  12.647  1  3.12836  2.47279  0.430913
 9020.48  12.6466  1.0  3.12807  2.47256  0.427461
 9020.73  12.6463  1  3.12773  2.47242  0.424179
 9020.98  12.6459  1.0  3.12745  2.47218  0.420865
 9021.23  12.6456  1  3.12727  2.47208  0.417725
 9021.48  12.6452  1.0  3.12707  2.47192  0.414608
 9021.73  12.6449  1  3.12682  2.47187  0.411558
 9021.98  12.6445  1.0  3.12665  2.47173  0.408572
 9022.23  12.6441  1  3.12624  2.47162  0.405587
 9022.48  12.6438  1.0  3.12601  2.4714  0.402737
 9022.73  12.6434  1  3.12575  2.47123  0.399767
 9022.97  12.6431  1.0  3.12548  2.47101  0.396932
 9023.22  12.6427  1  3.12538  2.47095  0.394106
 9023.47  12.6424  1.0  3.12521  2.4709  0.391301
 9023.72  12.642  1  3.12493  2.47078  0.3886
 9023.97  12.6417  1.0  3.12467  2.47056  0.385976
 9024.22  12.6413  1  3.12444  2.47041  0.383429
 9024.47  12.6409  1.0  3.12419  2.47028  0.381001
 9024.72  12.6406  1  3.12403  2.47014  0.378774
 9024.97  12.6402  1.0  3.12371  2.47007  0.376672
 9025.22  12.6399  1  3.1236  2.46999  0.37476
 9025.47  12.6395  1.0  3.12333  2.46988  0.373066
 9025.72  12.6392  1  3.12303  2.4696  0.371608
 9025.97  12.6388  1.0  3.12278  2.46949  0.370418
 9026.22  12.6384  1  3.12254  2.46927  0.369563
 9026.47  12.6381  1.0  3.12235  2.46924  0.369011
 9026.72  12.6377  1  3.12213  2.46915  0.368724
 9026.97  12.6374  1.0  3.12197  2.46907  0.368837
 9027.22  12.637  1  3.12172  2.46885  0.369282
 9027.47  12.6367  1.0  3.1215  2.46878  0.370033
 9027.72  12.6363  1  3.12116  2.46864  0.37116
 9027.97  12.636  1.0  3.12093  2.46846  0.37259
 9028.22  12.6356  1  3.12085  2.46839  0.374362
 9028.47  12.6352  4.0  3.1205  2.4682  0.376393
 9038.48  12.621  4  3.11352  2.46457  0.462703
 9048.47  12.6069  4.0  3.10681  2.46115  0.448545
 9058.47  12.5927  4  3.0999  2.45751  0.424606
 9068.47  12.5786  4.0  3.09194  2.45313  0.386905
 9078.47  12.5645  4  3.08537  2.44979  0.390417
 9088.47  12.5505  4.0  3.07851  2.44615  0.447845
 9098.47  12.5365  4  3.07234  2.44312  0.493393
 9108.47  12.5225  4.0  3.0656  2.43961  0.456275
 9118.47  12.5085  4  3.05876  2.43599  0.435326
 9128.46  12.4946  4.0  3.05178  2.43227  0.389046
 9138.46  12.4807  4  3.04472  2.42839  0.379581
 9148.46  12.4668  4.0  3.03646  2.42363  0.434334
 9158.46  12.453  4  3.0273  2.41802  0.515591
 9168.46  12.4392  4.0  2.99461  2.39363  0.476571
 9178.46  12.4254  4  3.02235  2.41763  0.443919
 9188.46  12.4117  4.0  3.01478  2.41334  0.450892
 9198.46  12.398  4  3.00768  2.4094  0.459117
 9208.45  12.3843  4.0  3.00086  2.40563  0.427204
 9218.45  12.3707  4  2.99404  2.4019  0.428527
 9228.45  12.3571  4.0  2.98733  2.39821  0.464015
 9238.45  12.3435  4  2.9807  2.3946  0.499677
 9248.45  12.3299  4.0  2.974  2.39089  0.497745
 9258.45  12.3164  4  2.96986  2.38927  0.495334
 9268.45  12.3029  4.0  2.96695  2.38855  0.487274
 9278.45  12.2894  4  2.96005  2.38468  0.479422
 9288.44  12.276  4.0  2.9518  2.37966  0.475232
 9298.44  12.2626  4  2.89712  2.33719  0.465398
 9308.44  12.2492  4.0  2.92899  2.36452  0.483023
 9318.44  12.2359  4  2.93524  2.37121  0.501496
 9328.44  12.2226  4.0  2.92852  2.36735  0.507365
 9338.44  12.2093  4  2.92185  2.36356  0.515896
 9348.44  12.196  4.0  2.91531  2.35991  0.52458
 9358.44  12.1828  4  2.90875  2.3562  0.522897
 9368.44  12.1696  4.0  2.90218  2.35243  0.520549
 9378.43  12.1564  4  2.89573  2.34874  0.51824
 9388.43  12.1433  4.0  2.88929  2.34509  0.516952
 9398.43  12.1301  4  2.88283  2.34141  0.517709
 9408.43  12.1171  4.0  2.87633  2.33763  0.523457
 9418.43  12.104  4  2.86988  2.33396  0.533526
 9428.43  12.091  4.0  2.86352  2.33027  0.539006
 9438.43  12.078  4  2.85614  2.32579  0.541289
 9448.43  12.065  4.0  2.85044  2.32263  0.546367
 9458.42  12.0521  4  2.844  2.31887  0.55234
 9468.42  12.0391  4.0  2.83749  2.31505  0.55528
 9478.42  12.0262  4  2.83108  2.31133  0.557839
 9488.42  12.0134  4.0  2.82462  2.3075  0.557908
 9498.42  12.0005  4  2.8182  2.30373  0.557184
 9508.42  11.9877  4.0  2.81179  2.29994  0.556969
 9518.42  11.975  4  2.8053  2.2961  0.559808
 9528.42  11.9622  4.0  2.79894  2.29229  0.566231
 9538.42  11.9495  4  2.79249  2.28847  0.571528
 9548.41  11.9368  4.0  2.78612  2.28462  0.575275
 9558.41  11.9241  4  2.77967  2.28072  0.578339
 9568.41  11.9115  4.0  2.77317  2.27681  0.581623
 9578.41  11.8989  4  2.76681  2.27295  0.584977
 9588.41  11.8863  4.0  2.76047  2.26916  0.588581
 9598.41  11.8737  4  2.754  2.26521  0.591123
 9608.41  11.8612  4.0  2.74761  2.26127  0.592987
 9618.4  11.8487  4  2.74133  2.25749  0.594824
 9628.4  11.8362  4.0  2.73494  2.25355  0.59641
 9638.4  11.8237  4  2.72812  2.24928  0.598467
 9648.4  11.8113  4.0  2.72165  2.24528  0.601157
 9658.4  11.7989  4  2.71542  2.24148  0.604204
 9668.4  11.7865  4.0  2.70808  2.23671  0.607377
 9678.4  11.7742  4  2.70175  2.2328  0.610545
 9688.39  11.7618  4.0  2.6944  2.22801  0.613365
 9698.39  11.7495  4  2.68915  2.22498  0.616787
 9708.39  11.7373  4.0  2.67334  2.21317  0.617361
 9718.39  11.725  4  2.67695  2.2174  0.622528
 9728.39  11.7128  4.0  2.67054  2.21337  0.625228
 9738.39  11.7006  4  2.66412  2.20934  0.627731
 9748.39  11.6884  4.0  2.65787  2.2054  0.62982
 9758.39  11.6763  4  2.65151  2.20136  0.631803
 9768.39  11.6642  4.0  2.6488  2.20036  0.634822
 9778.38  11.6521  4  2.64344  2.19715  0.637496
 9788.38  11.64  4.0  2.59761  2.16025  0.630439
 9798.38  11.628  4  2.63463  2.19227  0.643353
 9808.38  11.6159  4.0  2.62785  2.18785  0.645667
 9818.38  11.6039  4  2.62152  2.18379  0.648336
 9828.38  11.592  4.0  2.60817  2.17383  0.649335
 9838.375  11.58  4  2.60765  2.17464  0.653387
 9848.37  11.5681  4.0  2.60233  2.17141  0.656244
 9858.37  11.5562  4  2.59633  2.16752  0.658819
 9868.37  11.5443  4.0  2.5902  2.16358  0.66134
 9878.37  11.5325  4  2.58406  2.15959  0.663752
 9888.37  11.5207  4.0  2.5779  2.15564  0.666059
 9898.37  11.5089  4  2.57177  2.15165  0.668263
 9908.37  11.4971  4.0  2.5657  2.14771  0.670492
 9918.36  11.4854  4  2.55957  2.14373  0.672709
 9928.36  11.4736  4.0  2.5533  2.13963  0.674885
 9938.36  11.4619  4  2.54692  2.13533  0.67705
 9948.36  11.4503  4.0  2.52226  2.11581  0.674475
 9958.36  11.4386  4  2.53311  2.12602  0.681176
 9968.36  11.427  4.0  2.52986  2.1244  0.684188
 9978.36  11.4154  4  2.46758  2.07318  0.671188
 9988.36  11.4038  4.0  2.47979  2.08449  0.678299
 9998.35  11.3922  4  2.50751  2.10889  0.689853
 10008.4  11.3807  4.0  2.50669  2.1093  0.693523
 10018.4  11.3692  4  2.49458  2.10015  0.694058
 10028.4  11.3577  4.0  2.49355  2.10036  0.697598
 10038.3  11.3462  4  2.48884  2.09745  0.700089
 10048.3  11.3348  4.0  2.48677  2.09677  0.703312
 10058.3  11.3234  4  2.48076  2.09273  0.70533
 10068.3  11.312  4.0  2.47456  2.08856  0.707277
 10078.3  11.3006  4  2.46854  2.08451  0.709267
 10088.3  11.2893  4.0  2.46257  2.08051  0.711282
 10098.3  11.278  4  2.45659  2.07648  0.713289
 10108.3  11.2667  4.0  2.45049  2.0723  0.715254
 10118.3  11.2554  4  2.44432  2.06812  0.717212
 10128.3  11.2441  4.0  2.43834  2.06404  0.71926
 10138.3  11.2329  4  2.4324  2.05999  0.721275
 10148.3  11.2217  4.0  2.42649  2.05592  0.723158
 10158.3  11.2105  4  2.4205  2.05185  0.725043
 10168.3  11.1993  4.0  2.41443  2.04769  0.726919
 10178.3  11.1882  4  2.40801  2.04321  0.72874
 10188.3  11.1771  4.0  2.40252  2.03955  0.73082
 10198.3  11.166  4  2.39632  2.03523  0.73269
 10208.3  11.1549  4.0  2.3896  2.0305  0.73439