File: MEX1_29705_processed.xdi
# XDI/1.0
# Mono.d_spacing: 3.13897
# Reference.Element: Ag
# ROI.start_bin: nan
# ROI.end_bin: nan
# Element.symbol: None
# Element.edge: None
# Processing.version: spec_processing_library v0.3.5
# Column.1: energy
# Column.2: bragg
# Column.3: count_time seconds
# Column.4: i0
# Column.5: i1
# Column.6: i2
# Describe.Column.1: energy - MEX1ES01ZEB01:CALC_ENERGY_EV
# Describe.Column.2: bragg - MEX1ES01ZEB01:BRAGG_WITH_OFFSET
# Describe.Column.3: count_time - MEX1ES01ZEB01:GATE_TIME_SET
# Describe.Column.4: i0 - MEX1ES01DAQ01:ch1:S:MeanValue_RBV
# Describe.Column.5: i1 - MEX1ES01DAQ01:ch2:S:MeanValue_RBV
# Describe.Column.6: i2 - MEX1ES01DAQ01:ch3:S:MeanValue_RBV
# Samples: [417, 417, 417, 417, 417, 417]
# ///
# Ag foil
#
# xdi from default mda2xdi preset for mex1.
#--------
#  energy   bragg   count_time   i0   i1   i2
 3150.95  38.8122  1.0  1.23991  0.603939  3.95532
 3160.95  38.6666  1  1.25148  0.59924  3.92656
 3170.95  38.5221  1.0  1.22347  0.600775  3.94633
 3180.95  38.3789  1  1.11492  0.602381  3.97789
 3190.95  38.2368  1.0  1.09627  0.604015  3.99695
 3200.95  38.0959  1  1.11284  0.607678  4.02571
 3210.95  37.9562  1.0  1.14679  0.60656  4.01905
 3220.95  37.8176  1  1.15534  0.607339  4.02584
 3230.95  37.6801  1.0  1.17259  0.607406  4.02649
 3240.95  37.5436  1  1.20285  0.59422  3.93463
 3250.95  37.4083  1.0  1.24291  0.607829  4.01895
 3260.94  37.2741  1  1.23779  0.60511  4.00176
 3270.94  37.1409  1.0  1.25325  0.603577  3.98607
 3280.94  37.0087  1  1.28444  0.603009  3.97461
 3290.94  36.8776  1.0  1.30895  0.601396  3.95545
 3300.94  36.7475  1  1.33538  0.600444  3.93901
 3310.94  36.6184  1.0  1.35084  0.599241  3.92255
 3320.94  36.4903  1  1.37516  0.598154  3.90308
 3330.94  36.3632  1.0  1.2556  0.591916  3.88854
 3331.19  36.36  1  1.26096  0.592162  3.88865
 3331.44  36.3569  1.0  1.26699  0.592195  3.88655
 3331.69  36.3537  1  1.27288  0.592278  3.88537
 3331.94  36.3505  1.0  1.27765  0.589743  3.86654
 3332.19  36.3474  1  1.28288  0.591769  3.87758
 3332.44  36.3442  1.0  1.28695  0.59102  3.8701
 3332.69  36.341  1  1.28886  0.582444  3.79499
 3332.94  36.3379  1.0  1.29475  0.594016  3.89222
 3333.19  36.3347  1  1.29792  0.59391  3.88981
 3333.44  36.3316  1.0  1.30077  0.593706  3.88729
 3333.69  36.3284  1  1.30342  0.593614  3.88551
 3333.94  36.3252  1.0  1.3059  0.59363  3.88477
 3334.19  36.3221  1  1.3082  0.593565  3.8832
 3334.44  36.3189  1.0  1.31036  0.593584  3.8826
 3334.69  36.3158  1  1.31228  0.593555  3.88094
 3334.94  36.3126  1.0  1.31406  0.5935  3.88025
 3335.19  36.3095  1  1.31562  0.593585  3.87994
 3335.44  36.3063  1.0  1.31697  0.593519  3.87911
 3335.69  36.3031  1  1.31814  0.593478  3.87824
 3335.94  36.3  1.0  1.3191  0.593408  3.87714
 3336.19  36.2968  1  1.31992  0.593378  3.87698
 3336.44  36.2937  1.0  1.32044  0.593377  3.87653
 3336.69  36.2905  1  1.32056  0.593213  3.87498
 3336.94  36.2874  1.0  1.32026  0.593235  3.87518
 3337.19  36.2842  1  1.31945  0.593064  3.87456
 3337.44  36.2811  1.0  1.31815  0.59307  3.87377
 3337.69  36.2779  1  1.31653  0.592909  3.87307
 3337.94  36.2748  1.0  1.31475  0.592748  3.87261
 3338.19  36.2716  1  1.31311  0.592596  3.87186
 3338.44  36.2685  1.0  1.31176  0.592466  3.87185
 3338.69  36.2653  1  1.31073  0.592413  3.87101
 3338.94  36.2622  1.0  1.31008  0.592313  3.87031
 3339.19  36.259  1  1.30962  0.592209  3.86916
 3339.44  36.2559  1.0  1.3093  0.59212  3.86851
 3339.69  36.2527  1  1.31216  0.593138  3.87454
 3339.94  36.2496  1.0  1.31178  0.593096  3.87417
 3340.19  36.2465  1  1.31117  0.592964  3.87334
 3340.44  36.2433  1.0  1.31031  0.592818  3.87303
 3340.69  36.2402  1  1.3091  0.592615  3.87244
 3340.94  36.237  1.0  1.30759  0.592597  3.87155
 3341.19  36.2339  1  1.30588  0.59248  3.87065
 3341.44  36.2307  1.0  1.30393  0.59229  3.87025
 3341.69  36.2276  1  1.30199  0.592097  3.86932
 3341.94  36.2245  1.0  1.30019  0.59201  3.86988
 3342.19  36.2213  1  1.29849  0.591922  3.86831
 3342.44  36.2182  1.0  1.29702  0.591688  3.86798
 3342.69  36.215  1  1.29571  0.591596  3.86666
 3342.94  36.2119  1.0  1.29456  0.591511  3.86658
 3343.19  36.2088  1  1.29361  0.591456  3.86601
 3343.44  36.2056  1.0  1.29279  0.591293  3.86532
 3343.69  36.2025  1  1.29207  0.591253  3.86493
 3343.94  36.1994  1.0  1.29144  0.591113  3.86372
 3344.19  36.1962  1  1.29099  0.591077  3.86294
 3344.44  36.1931  1.0  1.2906  0.590925  3.8629
 3344.69  36.19  1  1.29037  0.590928  3.86314
 3344.94  36.1868  1.0  1.29017  0.590915  3.86235
 3345.19  36.1837  1  1.29009  0.590768  3.86165
 3345.44  36.1806  1.0  1.29013  0.590726  3.86065
 3345.69  36.1774  1  1.29024  0.590652  3.86054
 3345.94  36.1743  1.0  1.29043  0.590601  3.85996
 3346.19  36.1712  1  1.29069  0.590498  3.85964
 3346.44  36.168  1.0  1.29101  0.590516  3.85841
 3346.69  36.1649  1  1.29149  0.590449  3.85832
 3346.94  36.1618  1.0  1.29204  0.590397  3.85736
 3347.19  36.1587  1  1.29283  0.590407  3.85656
 3347.44  36.1555  1.0  1.29378  0.590402  3.85603
 3347.69  36.1524  1  1.2949  0.590367  3.85541
 3347.94  36.1493  1.0  1.29616  0.59036  3.85497
 3348.19  36.1462  1  1.29763  0.590378  3.85414
 3348.44  36.143  1.0  1.29919  0.590386  3.85358
 3348.69  36.1399  1  1.30087  0.590369  3.85352
 3348.94  36.1368  1.0  1.30261  0.590387  3.85195
 3349.19  36.1337  1  1.30428  0.590464  3.85177
 3349.44  36.1305  1.0  1.30587  0.590447  3.8515
 3349.69  36.1274  1  1.30727  0.590515  3.85058
 3349.94  36.1243  1.0  1.30835  0.590471  3.8503
 3350.19  36.1212  1  1.30918  0.590441  3.84949
 3350.44  36.1181  1.0  1.30966  0.590452  3.84894
 3350.69  36.1149  1  1.30985  0.590357  3.8482
 3350.94  36.1118  1.0  1.30981  0.590341  3.84718
 3351.19  36.1087  1  1.30956  0.590189  3.84681
 3351.44  36.1056  1.0  1.30933  0.590172  3.84614
 3351.69  36.1025  1  1.30907  0.590032  3.8456
 3351.94  36.0994  1.0  1.30893  0.589925  3.84528
 3352.19  36.0962  1  1.30899  0.589944  3.84426
 3352.44  36.0931  1.0  1.30921  0.589834  3.84307
 3352.69  36.09  1  1.30973  0.589827  3.84301
 3352.94  36.0869  1.0  1.31056  0.58982  3.84273
 3353.19  36.0838  1  1.3115  0.589806  3.84216
 3353.44  36.0807  1.0  1.31254  0.589723  3.84085
 3353.69  36.0776  1  1.31381  0.58984  3.84087
 3353.94  36.0744  1.0  1.31502  0.58975  3.84056
 3354.19  36.0713  1  1.31624  0.589811  3.83974
 3354.44  36.0682  1.0  1.31736  0.589834  3.83968
 3354.69  36.0651  1  1.31827  0.589716  3.83848
 3354.94  36.062  1.0  1.31902  0.58979  3.83806
 3355.19  36.0589  1  1.31947  0.58968  3.83741
 3355.44  36.0558  1.0  1.31971  0.589691  3.83705
 3355.69  36.0527  1  1.3196  0.589642  3.83671
 3355.94  36.0496  1.0  1.31917  0.589562  3.8355
 3356.19  36.0465  1  1.31854  0.589449  3.83563
 3356.44  36.0434  1.0  1.31762  0.589335  3.83411
 3356.69  36.0403  1  1.31652  0.589235  3.8332
 3356.94  36.0372  1.0  1.31529  0.589146  3.83306
 3357.19  36.0341  1  1.314  0.58907  3.83266
 3357.44  36.0309  1.0  1.31271  0.588894  3.83211
 3357.69  36.0278  1  1.31141  0.588751  3.83205
 3357.94  36.0247  1.0  1.31026  0.588674  3.83085
 3358.19  36.0216  1  1.30921  0.588511  3.82994
 3358.44  36.0185  1.0  1.30833  0.588426  3.82911
 3358.69  36.0154  1  1.30765  0.588296  3.82859
 3358.94  36.0123  1.0  1.30717  0.588229  3.82795
 3359.19  36.0092  1  1.30694  0.588208  3.82779
 3359.44  36.0061  1.0  1.30695  0.588152  3.82628
 3359.69  36.003  1  1.30716  0.588087  3.82565
 3359.94  35.9999  1.0  1.30766  0.58805  3.82482
 3360.19  35.9969  1  1.30831  0.588054  3.82476
 3360.44  35.9937  1.0  1.30913  0.587958  3.82401
 3360.69  35.9907  1  1.31019  0.587952  3.82349
 3360.94  35.9876  1.0  1.31139  0.587974  3.82257
 3361.19  35.9845  1  1.31268  0.587951  3.82162
 3361.44  35.9814  1.0  1.31402  0.587894  3.82074
 3361.69  35.9783  1  1.31531  0.587045  3.81275
 3361.94  35.9752  1.0  1.31685  0.587291  3.81482
 3362.19  35.9721  1  1.31842  0.587998  3.82002
 3362.44  35.969  1.0  1.31982  0.58805  3.81884
 3362.69  35.9659  1  1.32118  0.588026  3.81839
 3362.94  35.9628  1.0  1.32245  0.588099  3.81806
 3363.19  35.9597  1  1.3237  0.588132  3.8171
 3363.44  35.9566  1.0  1.32477  0.588099  3.81744
 3363.69  35.9536  1  1.32582  0.588061  3.81606
 3363.94  35.9505  1.0  1.32673  0.588043  3.81568
 3364.19  35.9474  1  1.32758  0.588069  3.81519
 3364.44  35.9443  1.0  1.32831  0.587977  3.81518
 3364.69  35.9412  1  1.32897  0.588018  3.81384
 3364.94  35.9381  1.0  1.32958  0.587914  3.81347
 3365.19  35.935  1  1.33003  0.587883  3.81283
 3365.44  35.9319  1.0  1.33045  0.58783  3.81228
 3365.69  35.9289  1  1.33084  0.587892  3.81174
 3365.94  35.9258  1.0  1.33114  0.587815  3.8109
 3366.19  35.9227  1  1.33143  0.587789  3.81038
 3366.44  35.9196  1.0  1.33163  0.587611  3.80907
 3366.69  35.9165  1  1.33178  0.587545  3.80791
 3366.94  35.9134  1.0  1.33174  0.586801  3.80194
 3367.19  35.9104  1  1.33193  0.587018  3.80251
 3367.44  35.9073  1.0  1.3321  0.587219  3.80523
 3367.69  35.9042  1  1.33209  0.586856  3.80138
 3367.94  35.9011  1.0  1.33246  0.587574  3.80757
 3368.19  35.8981  1  1.33253  0.587411  3.80589
 3368.44  35.895  1.0  1.33272  0.587392  3.80537
 3368.69  35.8919  1  1.33288  0.587212  3.80405
 3368.94  35.8888  1.0  1.33319  0.587281  3.80397
 3369.19  35.8857  1  1.33348  0.587165  3.80245
 3369.44  35.8827  1.0  1.33582  0.587802  3.80589
 3369.69  35.8796  1  1.33742  0.588176  3.80777
 3369.94  35.8765  1.0  1.33787  0.588028  3.80632
 3370.19  35.8735  1  1.33833  0.588056  3.80588
 3370.44  35.8704  1.0  1.33882  0.587855  3.8038
 3370.69  35.8673  1  1.33935  0.587861  3.80367
 3370.94  35.8642  1.0  1.33993  0.587962  3.80407
 3371.19  35.8612  1  1.34046  0.587961  3.80325
 3371.44  35.8581  1.0  1.341  0.587882  3.80242
 3371.69  35.855  1  1.34158  0.58781  3.80174
 3371.94  35.8519  1.0  1.34207  0.5878  3.80156
 3372.19  35.8489  1  1.34254  0.587669  3.80054
 3372.44  35.8458  1.0  1.34291  0.587604  3.79855
 3372.69  35.8427  1  1.34325  0.587155  3.79523
 3372.94  35.8397  1.0  1.3435  0.586864  3.7918
 3373.19  35.8366  1  1.34393  0.587496  3.79812
 3373.44  35.8335  1.0  1.34404  0.587232  3.79475
 3373.69  35.8305  1  1.34369  0.584706  3.77279
 3373.94  35.8274  1.0  1.34446  0.587727  3.79847
 3374.19  35.8243  1  1.34447  0.587538  3.79722
 3374.44  35.8213  1.0  1.34447  0.587452  3.79579
 3374.69  35.8182  1  1.34451  0.587309  3.79484
 3374.94  35.8151  1.0  1.34448  0.587302  3.79394
 3375.19  35.8121  1  1.34436  0.5872  3.79303
 3375.44  35.809  1.0  1.3443  0.587081  3.79233
 3375.69  35.806  1  1.3442  0.587013  3.7916
 3375.94  35.8029  1.0  1.34411  0.586993  3.79039
 3376.19  35.7998  1  1.34401  0.586722  3.78866
 3376.44  35.7968  1.0  1.34377  0.586164  3.78363
 3376.69  35.7937  1  1.34329  0.584287  3.76798
 3376.94  35.7907  1.0  1.3431  0.583983  3.76455
 3377.19  35.7876  1  1.34368  0.587069  3.79096
 3377.44  35.7846  1.0  1.34358  0.586964  3.78963
 3377.69  35.7815  1  1.3435  0.586809  3.78822
 3377.94  35.7784  1.0  1.3434  0.586661  3.78767
 3378.19  35.7754  1  1.34329  0.586616  3.78633
 3378.44  35.7723  1.0  1.34323  0.586475  3.78533
 3378.69  35.7693  1  1.34309  0.586382  3.78467
 3378.94  35.7662  1.0  1.34306  0.586306  3.78328
 3379.19  35.7632  1  1.34296  0.586104  3.7828
 3379.44  35.7601  1.0  1.3428  0.585635  3.77701
 3379.69  35.7571  1  1.34276  0.585243  3.77479
 3379.94  35.754  1.0  1.34248  0.584002  3.76356
 3380.19  35.751  1  1.34302  0.586305  3.78295
 3380.44  35.7479  1.0  1.34302  0.586157  3.78149
 3380.69  35.7449  1  1.34312  0.58612  3.78037
 3380.94  35.7418  1.0  1.34327  0.586003  3.7798
 3381.19  35.7388  1  1.34346  0.585949  3.77833
 3381.44  35.7357  1.0  1.34362  0.585883  3.77785
 3381.69  35.7327  1  1.34391  0.585817  3.77654
 3381.94  35.7296  1.0  1.34419  0.585722  3.7768
 3382.19  35.7266  1  1.3445  0.585706  3.77599
 3382.44  35.7235  1.0  1.34494  0.585714  3.77476
 3382.69  35.7205  1  1.34543  0.585613  3.77406
 3382.94  35.7174  1.0  1.34595  0.585473  3.7714
 3383.19  35.7144  1  1.34656  0.585252  3.76969
 3383.44  35.7114  1.0  1.34725  0.585318  3.77012
 3383.69  35.7083  1  1.34808  0.585256  3.76898
 3383.94  35.7053  1.0  1.34898  0.585436  3.77008
 3384.19  35.7022  1  1.35  0.585681  3.77153
 3384.44  35.6992  1.0  1.35103  0.585652  3.77125
 3384.69  35.6961  1  1.35211  0.58563  3.7705
 3384.94  35.6931  1.0  1.3532  0.585695  3.76946
 3385.19  35.6901  1  1.35445  0.585751  3.76845
 3385.44  35.687  1.0  1.35571  0.585707  3.76811
 3385.69  35.684  1  1.35694  0.585727  3.7676
 3385.94  35.681  1.0  1.35826  0.585741  3.76723
 3386.19  35.6779  1  1.35955  0.58574  3.76647
 3386.44  35.6749  1.0  1.36086  0.585816  3.76559
 3386.69  35.6718  1  1.36215  0.585756  3.76485
 3386.94  35.6688  1.0  1.36346  0.585825  3.76411
 3387.19  35.6658  1  1.36473  0.585838  3.76395
 3387.44  35.6627  1.0  1.36586  0.58536  3.75898
 3387.69  35.6597  1  1.36713  0.585683  3.76118
 3387.94  35.6567  1.0  1.36836  0.586001  3.76207
 3388.19  35.6536  1  1.36945  0.585927  3.76169
 3388.44  35.6506  1.0  1.37052  0.58595  3.76083
 3388.69  35.6476  1  1.37164  0.585957  3.76037
 3388.94  35.6445  1.0  1.37269  0.585936  3.75955
 3389.19  35.6415  1  1.37369  0.585993  3.75957
 3389.44  35.6385  1.0  1.37466  0.585928  3.75825
 3389.69  35.6355  1  1.37564  0.585947  3.75724
 3389.94  35.6324  1.0  1.3766  0.585889  3.75629
 3390.19  35.6294  1  1.37748  0.585834  3.75662
 3390.44  35.6264  1.0  1.37842  0.585855  3.75569
 3390.69  35.6233  1  1.37934  0.58586  3.75509
 3390.94  35.6203  1.0  1.38022  0.585807  3.75391
 3391.19  35.6173  1  1.38114  0.585683  3.75216
 3391.44  35.6143  1.0  1.38184  0.584919  3.74443
 3391.69  35.6112  1  1.38289  0.585897  3.75308
 3391.94  35.6082  1.0  1.38372  0.585832  3.75052
 3392.19  35.6052  1  1.38456  0.585664  3.74882
 3392.44  35.6022  1.0  1.38513  0.584698  3.74071
 3392.69  35.5991  1  1.38601  0.584988  3.74274
 3392.94  35.5961  1.0  1.38696  0.585807  3.74839
 3393.19  35.5931  1  1.38773  0.585676  3.74625
 3393.44  35.5901  1.0  1.38845  0.585286  3.74351
 3393.69  35.5871  1  1.38924  0.585257  3.74293
 3393.94  35.584  1.0  1.39001  0.585485  3.74436
 3394.19  35.581  1  1.39072  0.585545  3.74286
 3394.44  35.578  1.0  1.3914  0.585347  3.74102
 3394.69  35.575  1  1.39199  0.584979  3.73806
 3394.94  35.572  1.0  1.39239  0.584099  3.72955
 3395.19  35.5689  1  1.3929  0.583543  3.72536
 3395.44  35.5659  1.0  1.39359  0.583876  3.72642
 3395.69  35.5629  1  1.39412  0.583671  3.72441
 3395.94  35.5599  1.0  1.39484  0.58446  3.7305
 3396.19  35.5569  1  1.39541  0.584753  3.73216
 3396.44  35.5539  1.0  1.39594  0.584843  3.73345
 3396.69  35.5508  1  1.39648  0.585152  3.73539
 3396.94  35.5478  1.0  1.39708  0.585854  3.74079
 3397.19  35.5448  1  1.39766  0.586694  3.74741
 3397.44  35.5418  1.0  1.39785  0.585708  3.73874
 3397.69  35.5388  1  1.39838  0.586166  3.74135
 3397.94  35.5358  1.0  1.39882  0.586113  3.74134
 3398.19  35.5328  1  1.39916  0.585787  3.73815
 3398.44  35.5298  1.0  1.39963  0.585925  3.73926
 3398.69  35.5268  1  1.40005  0.585991  3.7391
 3398.94  35.5238  1.0  1.40041  0.58561  3.73542
 3399.19  35.5207  1  1.40073  0.585323  3.73245
 3399.44  35.5177  1.0  1.40135  0.585942  3.73699
 3399.69  35.5147  1  1.4027  0.586083  3.73808
 3399.94  35.5117  1.0  1.40513  0.586599  3.74031
 3400.19  35.5087  1  1.40552  0.586496  3.73863
 3400.44  35.5057  1.0  1.40597  0.586168  3.73553
 3400.69  35.5027  1  1.40655  0.586546  3.73838
 3400.94  35.4997  1.0  1.40701  0.586381  3.73586
 3410.94  35.38  1  1.41775  0.585253  3.71182
 3420.94  35.2611  1.0  1.3838  0.57902  3.66266
 3430.94  35.1432  1  1.42723  0.581826  3.65183
 3440.94  35.026  1.0  1.45208  0.580193  3.61118
 3450.94  34.9098  1  1.47296  0.579998  3.58067
 3460.94  34.7943  1.0  1.5004  0.58032  3.55154
 3470.94  34.6797  1  1.51978  0.580229  3.5205
 3480.93  34.5659  1.0  1.54701  0.58107  3.48923
 3490.93  34.4529  1  1.57156  0.581192  3.45126
 3500.93  34.3407  1.0  1.58658  0.580088  3.40902
 3510.93  34.2293  1  1.60545  0.581946  3.384
 3520.93  34.1186  1.0  1.62308  0.580917  3.33714
 3530.93  34.0088  1  1.64422  0.580805  3.29153
 3540.93  33.8997  1.0  1.67712  0.582449  3.24874
 3550.93  33.7913  1  1.70646  0.583486  3.20185
 3560.93  33.6837  1.0  1.73022  0.584795  3.15723
 3570.93  33.5769  1  1.75031  0.586451  3.11671
 3580.93  33.4707  1.0  1.76827  0.588277  3.07747
 3590.93  33.3653  1  1.78461  0.58914  3.03004
 3600.93  33.2606  1.0  1.79962  0.591204  2.99036
 3610.93  33.1566  1  1.7852  0.58912  2.94359
 3620.93  33.0533  1.0  1.76698  0.587217  2.9019
 3630.93  32.9506  1  1.80439  0.591617  2.8546
 3640.93  32.8487  1.0  1.825  0.594877  2.81245
 3650.93  32.7474  1  1.8419  0.598702  2.7753
 3660.93  32.6468  1.0  1.87854  0.605595  2.73999
 3670.93  32.5469  1  1.89013  0.608878  2.70115
 3680.93  32.4476  1.0  1.90432  0.611578  2.65215
 3690.92  32.349  1  1.93225  0.624113  2.66266
 3700.92  32.251  1.0  1.96735  0.632766  2.63159
 3710.92  32.1536  1  1.98712  0.640532  2.60893
 3720.92  32.0569  1.0  2.00491  0.646843  2.57435
 3730.92  31.9608  1  2.02692  0.655612  2.55156
 3740.92  31.8653  1.0  2.05418  0.664165  2.51578
 3750.92  31.7704  1  2.08  0.672493  2.47838
 3760.92  31.6761  1.0  2.10168  0.682616  2.45695
 3770.92  31.5824  1  2.12161  0.691712  2.42803
 3780.92  31.4893  1.0  2.14635  0.702134  2.39779
 3790.92  31.3967  1  2.17335  0.711747  2.35398
 3800.92  31.3048  1.0  2.19987  0.722568  2.31699
 3810.92  31.2134  1  2.22474  0.734323  2.28568
 3820.92  31.1226  1.0  2.24722  0.746308  2.2575
 3830.92  31.0323  1  2.26686  0.757605  2.22606
 3840.92  30.9426  1.0  2.28689  0.769423  2.19394
 3850.92  30.8535  1  2.30866  0.781501  2.1595
 3860.92  30.7649  1.0  2.3315  0.794929  2.12885
 3870.92  30.6768  1  2.35588  0.808969  2.0961
 3880.92  30.5893  1.0  2.38137  0.823576  2.06284
 3890.91  30.5023  1  2.40617  0.835668  2.00695
 3900.91  30.4158  1.0  2.4322  0.853086  1.98661
 3910.91  30.3298  1  2.45446  0.866215  1.93626
 3920.91  30.2444  1.0  2.47615  0.88139  1.89879
 3930.91  30.1594  1  2.49764  0.897968  1.87147
 3940.91  30.075  1.0  2.51822  0.912764  1.82555
 3950.91  29.991  1  2.5396  0.928111  1.77941
 3960.91  29.9076  1.0  2.56202  0.944676  1.73626
 3970.91  29.8246  1  2.58389  0.961365  1.69203
 3980.91  29.7422  1.0  2.60528  0.979034  1.65333
 3990.91  29.6602  1  2.62665  0.997822  1.61914
 4000.91  29.5787  1.0  2.65028  1.01749  1.58416
 4010.91  29.4976  1  2.67738  1.03915  1.55066
 4020.91  29.417  1.0  2.68539  1.05405  1.50768
 4030.91  29.3369  1  2.71072  1.0767  1.47913
 4040.91  29.2573  1.0  2.73276  1.09881  1.45201
 4050.91  29.1781  1  2.75043  1.11891  1.41792
 4060.91  29.0993  1.0  2.7746  1.14065  1.37127
 4070.91  29.021  1  2.79776  1.1631  1.32991
 4080.9  28.9432  1.0  2.81778  1.18549  1.29329
 4090.9  28.8658  1  2.83527  1.20664  1.25014
 4100.9  28.7888  1.0  2.85428  1.22913  1.21007
 4110.9  28.7122  1  2.87387  1.2537  1.18192
 4120.9  28.6361  1.0  2.89507  1.28087  1.16698
 4130.9  28.5604  1  2.91371  1.3048  1.12843
 4140.9  28.4851  1.0  2.93351  1.33072  1.09836
 4150.9  28.4102  1  2.95378  1.35801  1.07525
 4160.9  28.3358  1.0  2.97418  1.38554  1.04896
 4170.9  28.2617  1  2.99293  1.41198  1.01396
 4180.9  28.1881  1.0  3.01207  1.43924  0.982582
 4190.9  28.1149  1  3.03159  1.46861  0.96312
 4200.9  28.042  1.0  3.04829  1.49633  0.935698
 4210.9  27.9696  1  3.05577  1.52024  0.909172
 4220.9  27.8975  1.0  3.09794  1.56071  0.880031
 4230.9  27.8258  1  3.1198  1.59312  0.862122
 4240.9  27.7546  1.0  3.13385  1.62316  0.849878
 4250.9  27.6837  1  3.15185  1.65617  0.843843
 4260.89  27.6131  1.0  3.16748  1.68675  0.822671
 4270.89  27.543  1  3.18417  1.71836  0.801792
 4280.89  27.4732  1.0  3.2042  1.75318  0.791925
 4290.89  27.4038  1  3.22335  1.7879  0.779984
 4300.89  27.3348  1.0  3.24147  1.8225  0.766901
 4310.89  27.2661  1  3.25849  1.85657  0.750486
 4320.89  27.1978  1.0  3.27616  1.89197  0.740461
 4330.89  27.1298  1  3.2927  1.92693  0.72659
 4340.89  27.0622  1.0  3.31669  1.96787  0.726352
 4350.89  26.9949  1  3.33616  2.00598  0.718535
 4360.89  26.928  1.0  3.35333  2.04378  0.715734
 4370.89  26.8615  1  3.36971  2.08111  0.710135
 4380.89  26.7953  1.0  3.38706  2.12016  0.70948
 4390.89  26.7294  1  3.40472  2.16024  0.713076
 4400.89  26.6638  1.0  3.42155  2.20041  0.718392
 4410.89  26.5986  1  3.43759  2.23912  0.713429
 4420.88  26.5338  1.0  3.45155  2.27724  0.709832
 4430.88  26.4692  1  3.46636  2.31711  0.712707
 4440.88  26.405  1.0  3.48206  2.35765  0.715362
 4450.88  26.3411  1  3.49937  2.40047  0.725117
 4460.88  26.2775  1.0  3.51536  2.44249  0.73224
 4470.88  26.2143  1  3.53154  2.48504  0.739204
 4480.88  26.1513  1.0  3.5475  2.52822  0.749212
 4490.88  26.0887  1  3.5637  2.57211  0.76203
 4500.88  26.0264  1.0  3.58153  2.61801  0.778408
 4510.88  25.9644  1  3.59488  2.66028  0.788948
 4520.88  25.9027  1.0  3.60809  2.70318  0.801162
 4530.88  25.8413  1  3.62368  2.74854  0.818293
 4540.88  25.7802  1.0  3.63861  2.7938  0.835304
 4550.88  25.7194  1  3.65197  2.83793  0.85042
 4560.88  25.6589  1.0  3.66523  2.88255  0.86767
 4570.88  25.5987  1  3.67819  2.92731  0.884878
 4580.88  25.5388  1.0  3.69131  2.9727  0.905015