File: MEX1_29703_processed.xdi
# XDI/1.0
# Mono.d_spacing: 3.13897
# Reference.Element: Sn
# ROI.start_bin: nan
# ROI.end_bin: nan
# Element.symbol: None
# Element.edge: None
# Processing.version: spec_processing_library v0.3.5
# Column.1: energy
# Column.2: bragg
# Column.3: count_time seconds
# Column.4: i0
# Column.5: i1
# Column.6: i2
# Describe.Column.1: energy - MEX1ES01ZEB01:CALC_ENERGY_EV
# Describe.Column.2: bragg - MEX1ES01ZEB01:BRAGG_WITH_OFFSET
# Describe.Column.3: count_time - MEX1ES01ZEB01:GATE_TIME_SET
# Describe.Column.4: i0 - MEX1ES01DAQ01:ch1:S:MeanValue_RBV
# Describe.Column.5: i1 - MEX1ES01DAQ01:ch2:S:MeanValue_RBV
# Describe.Column.6: i2 - MEX1ES01DAQ01:ch3:S:MeanValue_RBV
# Samples: [417, 417, 417, 417, 417, 417]
# ///
# Sn foil
#
# xdi from default mda2xdi preset for mex1.
#--------
#  energy   bragg   count_time   i0   i1   i2
 3728.92  31.98  1.0  2.02881  0.258192  2.13529
 3738.92  31.8843  1  2.0566  0.261816  2.1112
 3748.92  31.7893  1.0  2.08555  0.267158  2.11219
 3758.92  31.6949  1  2.10934  0.272751  2.12056
 3768.92  31.6011  1.0  2.13016  0.27768  2.11809
 3778.92  31.5078  1  2.15536  0.282987  2.11462
 3788.92  31.4152  1.0  2.18453  0.28875  2.11027
 3798.92  31.3231  1  2.21321  0.29523  2.11695
 3808.92  31.2316  1.0  2.24073  0.301767  2.12183
 3818.92  31.1407  1  2.2647  0.307748  2.1205
 3828.92  31.0503  1.0  2.28669  0.313797  2.11909
 3838.92  30.9605  1  2.30748  0.3196  2.11353
 3848.92  30.8713  1.0  2.33127  0.326349  2.11843
 3858.92  30.7825  1  2.35562  0.333194  2.11889
 3868.92  30.6944  1.0  2.38133  0.34044  2.12248
 3878.92  30.6067  1  2.40842  0.347568  2.11795
 3888.92  30.5196  1.0  2.43628  0.355193  2.1176
 3898.91  30.433  1  2.46437  0.363422  2.12433
 3908.91  30.347  1.0  2.49007  0.370868  2.11716
 3909.16  30.3448  1  2.49099  0.371344  2.12195
 3909.41  30.3427  1.0  2.49164  0.371546  2.12176
 3909.66  30.3405  1  2.49219  0.371698  2.12147
 3909.91  30.3384  1.0  2.49269  0.371875  2.12148
 3910.16  30.3362  1  2.49329  0.37209  2.1213
 3910.41  30.3341  1.0  2.49392  0.372394  2.12223
 3910.66  30.332  1  2.49439  0.372444  2.12129
 3910.91  30.3298  1.0  2.49501  0.37268  2.12146
 3911.16  30.3277  1  2.49561  0.372859  2.12145
 3911.41  30.3255  1.0  2.49594  0.372548  2.1129
 3911.66  30.3234  1  2.49669  0.373166  2.12038
 3911.91  30.3212  1.0  2.49717  0.373363  2.12013
 3912.16  30.3191  1  2.49776  0.373583  2.12082
 3912.41  30.317  1.0  2.49836  0.373767  2.12067
 3912.66  30.3148  1  2.49896  0.373971  2.12005
 3912.91  30.3127  1.0  2.49944  0.374148  2.12056
 3913.16  30.3105  1  2.49996  0.374314  2.12044
 3913.41  30.3084  1.0  2.50047  0.374523  2.12027
 3913.66  30.3063  1  2.50106  0.374696  2.12019
 3913.91  30.3041  1.0  2.50172  0.37495  2.12051
 3914.16  30.302  1  2.50203  0.374628  2.11104
 3914.41  30.2998  1.0  2.50273  0.375229  2.11968
 3914.66  30.2977  1  2.5031  0.374998  2.11042
 3914.91  30.2956  1.0  2.50391  0.375639  2.11926
 3915.16  30.2934  1  2.50451  0.375795  2.1193
 3915.41  30.2913  1.0  2.50502  0.376004  2.11855
 3915.66  30.2892  1  2.50547  0.376159  2.11841
 3915.91  30.287  1.0  2.50593  0.376313  2.11866
 3916.16  30.2849  1  2.50647  0.376491  2.11839
 3916.41  30.2828  1.0  2.50706  0.376667  2.11778
 3916.66  30.2806  1  2.50762  0.376876  2.11763
 3916.91  30.2785  1.0  2.50812  0.377044  2.11722
 3917.16  30.2763  1  2.50858  0.377209  2.11712
 3917.41  30.2742  1.0  2.50888  0.376857  2.10719
 3917.66  30.2721  1  2.50968  0.377538  2.11578
 3917.91  30.2699  1.0  2.51022  0.377704  2.11568
 3918.16  30.2678  1  2.51075  0.377909  2.11573
 3918.41  30.2657  1.0  2.51139  0.378205  2.11599
 3918.66  30.2635  1  2.51192  0.378313  2.11499
 3918.91  30.2614  1.0  2.51244  0.378465  2.11543
 3919.16  30.2593  1  2.51301  0.37864  2.11493
 3919.41  30.2572  1.0  2.5135  0.378819  2.11445
 3919.66  30.255  1  2.514  0.378991  2.11409
 3919.91  30.2529  1.0  2.51453  0.379158  2.11358
 3920.16  30.2508  1  2.51508  0.379334  2.11311
 3920.41  30.2486  1.0  2.51559  0.379508  2.1135
 3920.66  30.2465  1  2.51615  0.379681  2.11284
 3920.91  30.2444  1.0  2.51665  0.37986  2.1125
 3921.16  30.2422  1  2.51721  0.380044  2.11172
 3921.41  30.2401  1.0  2.51772  0.380195  2.11175
 3921.66  30.238  1  2.51829  0.380361  2.1112
 3921.91  30.2358  1.0  2.51885  0.380587  2.11062
 3922.16  30.2337  1  2.51942  0.38066  2.10933
 3922.41  30.2316  1.0  2.51937  0.379935  2.09309
 3922.66  30.2295  1  2.52045  0.381198  2.11164
 3922.91  30.2273  1.0  2.52087  0.381283  2.10948
 3923.16  30.2252  1  2.5214  0.381381  2.10787
 3923.41  30.2231  1.0  2.52137  0.380551  2.09015
 3923.66  30.221  1  2.5215  0.380033  2.07769
 3923.91  30.2188  1.0  2.52325  0.382257  2.11235
 3924.16  30.2167  1  2.52375  0.382338  2.11074
 3924.41  30.2146  1.0  2.52416  0.382408  2.10808
 3924.66  30.2124  1  2.52398  0.381215  2.08492
 3924.91  30.2103  1.0  2.52535  0.382984  2.11044
 3925.16  30.2082  1  2.52594  0.383129  2.10946
 3925.41  30.2061  1.0  2.52647  0.383274  2.10893
 3925.66  30.204  1  2.527  0.383476  2.10849
 3925.91  30.2018  1.0  2.52744  0.383616  2.10802
 3926.16  30.1997  1  2.52805  0.383832  2.10732
 3926.41  30.1976  1.0  2.5285  0.383995  2.10679
 3926.66  30.1955  1  2.52915  0.38419  2.10593
 3926.91  30.1933  1.0  2.52961  0.384388  2.10543
 3927.16  30.1912  1  2.53008  0.384541  2.10468
 3927.41  30.1891  1.0  2.53062  0.384779  2.10361
 3927.66  30.187  1  2.53117  0.384927  2.10246
 3927.91  30.1848  1.0  2.53172  0.385089  2.10165
 3928.16  30.1827  1  2.53223  0.385316  2.09982
 3928.41  30.1806  1.0  2.53269  0.385467  2.09869
 3928.66  30.1785  1  2.53322  0.385639  2.09739
 3928.91  30.1764  1.0  2.53383  0.385848  2.09609
 3929.16  30.1742  1  2.53437  0.386021  2.09453
 3929.41  30.1721  1.0  2.53488  0.386237  2.09314
 3929.66  30.17  1  2.53536  0.386389  2.09205
 3929.91  30.1679  1.0  2.5359  0.38658  2.09138
 3930.16  30.1658  1  2.53644  0.386758  2.09036
 3930.41  30.1637  1.0  2.53694  0.386965  2.08932
 3930.66  30.1615  1  2.5375  0.387166  2.08889
 3930.91  30.1594  1.0  2.53798  0.387322  2.08764
 3931.16  30.1573  1  2.53845  0.387494  2.08631
 3931.41  30.1552  1.0  2.53899  0.387704  2.0858
 3931.66  30.1531  1  2.5395  0.38786  2.08494
 3931.91  30.151  1.0  2.54607  0.388925  2.08764
 3932.16  30.1488  1  2.54663  0.389127  2.08713
 3932.41  30.1467  1.0  2.54717  0.389314  2.08633
 3932.66  30.1446  1  2.54775  0.38948  2.08575
 3932.91  30.1425  1.0  2.54823  0.389673  2.08504
 3933.16  30.1404  1  2.54881  0.389868  2.08479
 3933.41  30.1383  1.0  2.54942  0.390086  2.08372
 3933.66  30.1362  1  2.54999  0.390257  2.08313
 3933.91  30.134  1.0  2.55056  0.390461  2.08294
 3934.16  30.1319  1  2.55106  0.390628  2.08139
 3934.41  30.1298  1.0  2.55149  0.390816  2.08121
 3934.66  30.1277  1  2.55197  0.390993  2.07969
 3934.91  30.1256  1.0  2.55251  0.391162  2.07912
 3935.16  30.1235  1  2.55309  0.391371  2.0779
 3935.41  30.1214  1.0  2.55368  0.391566  2.07735
 3935.66  30.1193  1  2.55417  0.391759  2.07648
 3935.91  30.1171  1.0  2.55464  0.391941  2.07526
 3936.16  30.115  1  2.55511  0.392108  2.07475
 3936.41  30.1129  1.0  2.5557  0.392352  2.07365
 3936.66  30.1108  1  2.55616  0.392514  2.07253
 3936.91  30.1087  1.0  2.55684  0.392685  2.07186
 3937.16  30.1066  1  2.5574  0.392904  2.07149
 3937.41  30.1045  1.0  2.55795  0.393087  2.07041
 3937.66  30.1024  1  2.55851  0.393269  2.06977
 3937.91  30.1003  1.0  2.55908  0.393469  2.06908
 3938.16  30.0982  1  2.55963  0.393652  2.06796
 3938.41  30.096  1.0  2.56008  0.393836  2.06714
 3938.66  30.0939  1  2.56054  0.394052  2.06664
 3938.91  30.0918  1.0  2.56109  0.394216  2.06602
 3939.16  30.0897  1  2.5617  0.394437  2.06567
 3939.41  30.0876  1.0  2.56222  0.394598  2.06522
 3939.66  30.0855  1  2.56272  0.394749  2.0631
 3939.91  30.0834  1.0  2.56334  0.394972  2.06351
 3940.16  30.0813  1  2.5639  0.395168  2.06368
 3940.41  30.0792  1.0  2.5645  0.395373  2.06285
 3940.66  30.0771  1  2.56501  0.395556  2.06257
 3940.91  30.075  1.0  2.56552  0.395748  2.06246
 3941.16  30.0729  1  2.56608  0.395934  2.06155
 3941.41  30.0708  1.0  2.56671  0.396113  2.06107
 3941.66  30.0687  1  2.56721  0.396297  2.06087
 3941.91  30.0666  1.0  2.56781  0.396499  2.06061
 3942.16  30.0645  1  2.5684  0.396692  2.06005
 3942.41  30.0624  1.0  2.56894  0.396848  2.05981
 3942.66  30.0603  1  2.56943  0.397027  2.05854
 3942.91  30.0582  1.0  2.56995  0.397155  2.05744
 3943.16  30.056  1  2.57056  0.397278  2.05628
 3943.41  30.054  1.0  2.57099  0.397292  2.05247
 3943.66  30.0518  1  2.57126  0.396859  2.04117
 3943.91  30.0497  1.0  2.56928  0.392406  1.95985
 3944.16  30.0476  1  2.57308  0.398564  2.06308
 3944.41  30.0455  1.0  2.57366  0.398919  2.06529
 3944.66  30.0434  1  2.57414  0.398939  2.06242
 3944.91  30.0413  1.0  2.57463  0.399042  2.06133
 3945.16  30.0392  1  2.57519  0.399204  2.05997
 3945.41  30.0371  1.0  2.57572  0.399381  2.05881
 3945.66  30.035  1  2.5763  0.399536  2.05807
 3945.91  30.033  1.0  2.57683  0.399704  2.05711
 3946.16  30.0309  1  2.57733  0.399826  2.05628
 3946.41  30.0288  1.0  2.57784  0.399977  2.05423
 3946.66  30.0267  1  2.57825  0.400078  2.05281
 3946.91  30.0246  1.0  2.57883  0.400177  2.05057
 3947.16  30.0225  1  2.57919  0.400111  2.04599
 3947.41  30.0204  1.0  2.5793  0.399401  2.02942
 3947.66  30.0183  1  2.57741  0.395181  1.95272
 3947.91  30.0162  1.0  2.58154  0.401734  2.06202
 3948.16  30.0141  1  2.58019  0.398419  2.00138
 3948.41  30.012  1.0  2.58059  0.398487  1.99936
 3948.66  30.0099  1  2.5835  0.402945  2.07225
 3948.91  30.0078  1.0  2.58384  0.402806  2.06582
 3949.16  30.0057  1  2.5844  0.402862  2.06304
 3949.41  30.0036  1.0  2.5849  0.40297  2.06075
 3949.66  30.0015  1  2.58546  0.40306  2.05918
 3949.91  29.9994  1.0  2.58599  0.403231  2.05869
 3950.16  29.9973  1  2.58652  0.403402  2.05752
 3950.41  29.9952  1.0  2.58706  0.403533  2.0567
 3950.66  29.9931  1  2.58752  0.403666  2.05544
 3950.91  29.991  1.0  2.58806  0.403824  2.05436
 3951.16  29.9889  1  2.58846  0.403938  2.05249
 3951.41  29.9869  1.0  2.58912  0.404032  2.04984
 3951.66  29.9848  1  2.58943  0.403817  2.04302
 3951.91  29.9827  1.0  2.58776  0.400072  1.97412
 3952.16  29.9806  1  2.58991  0.403101  2.02214
 3952.41  29.9785  1.0  2.59188  0.405653  2.06273
 3952.66  29.9764  1  2.59242  0.405715  2.05917
 3952.91  29.9743  1.0  2.59292  0.405832  2.05851
 3953.16  29.9722  1  2.59345  0.405949  2.05744
 3953.41  29.9701  1.0  2.59398  0.406137  2.05611
 3953.66  29.968  1  2.59449  0.40629  2.05524
 3953.91  29.966  1.0  2.59504  0.406469  2.0548
 3954.16  29.9639  1  2.59562  0.40669  2.05412
 3954.41  29.9618  1.0  2.59626  0.406863  2.05352
 3954.66  29.9597  1  2.5968  0.40708  2.05319
 3954.91  29.9576  1.0  2.59735  0.407252  2.05323
 3955.16  29.9555  1  2.59783  0.407434  2.05244
 3955.41  29.9534  1.0  2.59844  0.407652  2.05198
 3955.66  29.9513  1  2.59902  0.40784  2.05141
 3955.91  29.9493  1.0  2.59966  0.408026  2.05085
 3956.16  29.9472  1  2.60024  0.408241  2.05038
 3956.41  29.9451  1.0  2.60082  0.408422  2.0501
 3956.66  29.943  1  2.60138  0.408632  2.05012
 3956.91  29.9409  1.0  2.60194  0.408837  2.04934
 3957.16  29.9388  1  2.60255  0.409011  2.04903
 3957.41  29.9367  1.0  2.60313  0.409221  2.04838
 3957.66  29.9347  1  2.60375  0.409436  2.04813
 3957.91  29.9326  1.0  2.60435  0.40966  2.04854
 3958.16  29.9305  1  2.60494  0.409835  2.04764
 3958.41  29.9284  1.0  2.60553  0.410072  2.04741
 3958.66  29.9263  1  2.60606  0.410224  2.04747
 3958.91  29.9242  1.0  2.60667  0.410425  2.04675
 3959.16  29.9222  1  2.60738  0.410666  2.04648
 3959.41  29.9201  1.0  2.60793  0.410873  2.04681
 3959.66  29.918  1  2.6085  0.411048  2.04593
 3959.91  29.9159  1.0  2.60906  0.411285  2.04517
 3960.16  29.9138  1  2.60964  0.411495  2.04501
 3960.41  29.9118  1.0  2.61022  0.411673  2.04465
 3960.66  29.9097  1  2.61078  0.411907  2.04474
 3960.91  29.9076  1.0  2.61143  0.412083  2.04422
 3961.16  29.9055  1  2.61198  0.4123  2.0445
 3961.41  29.9034  1.0  2.61258  0.412498  2.04417
 3961.66  29.9014  1  2.61328  0.412743  2.0437
 3961.91  29.8993  1.0  2.61382  0.412908  2.0432
 3962.16  29.8972  1  2.61439  0.413128  2.04297
 3962.41  29.8951  1.0  2.61494  0.413351  2.04277
 3962.66  29.893  1  2.61551  0.413517  2.04274
 3962.91  29.891  1.0  2.61611  0.413731  2.04243
 3963.16  29.8889  1  2.61671  0.413931  2.0415
 3963.41  29.8868  1.0  2.61728  0.414145  2.04154
 3963.66  29.8847  1  2.61778  0.414339  2.04141
 3963.91  29.8827  1.0  2.6183  0.414541  2.04095
 3964.16  29.8806  1  2.61888  0.414772  2.04097
 3964.41  29.8785  1.0  2.62221  0.415349  2.04191
 3964.66  29.8764  1  2.62633  0.416074  2.04342
 3964.91  29.8744  1.0  2.62687  0.416273  2.0425
 3965.16  29.8723  1  2.62748  0.416482  2.04244
 3965.41  29.8702  1.0  2.62805  0.416656  2.04254
 3965.66  29.8681  1  2.62861  0.416908  2.04238
 3965.91  29.8661  1.0  2.62922  0.417124  2.04182
 3966.16  29.864  1  2.62975  0.417332  2.04157
 3966.41  29.8619  1.0  2.63028  0.417503  2.04165
 3966.66  29.8598  1  2.63084  0.417756  2.04059
 3966.91  29.8578  1.0  2.63133  0.41793  2.041
 3967.16  29.8557  1  2.63186  0.418088  2.0402
 3967.41  29.8536  1.0  2.63244  0.418309  2.03989
 3967.66  29.8515  1  2.63305  0.418524  2.03961
 3967.91  29.8495  1.0  2.63362  0.418729  2.03937
 3968.16  29.8474  1  2.63429  0.418952  2.03888
 3968.41  29.8453  1.0  2.63479  0.41914  2.03892
 3968.66  29.8433  1  2.63533  0.419357  2.03855
 3968.91  29.8412  1.0  2.63579  0.419535  2.03842
 3969.16  29.8391  1  2.63639  0.419769  2.03832
 3969.41  29.837  1.0  2.63698  0.419972  2.03743
 3969.66  29.835  1  2.63748  0.420178  2.03716
 3969.91  29.8329  1.0  2.63799  0.420367  2.0373
 3970.16  29.8308  1  2.63849  0.420594  2.03636
 3970.41  29.8288  1.0  2.63907  0.420772  2.03663
 3970.66  29.8267  1  2.63965  0.42098  2.03633
 3970.91  29.8246  1.0  2.64019  0.421179  2.03537
 3971.16  29.8226  1  2.64061  0.421404  2.03573
 3971.41  29.8205  1.0  2.64119  0.421587  2.03502
 3971.66  29.8184  1  2.64186  0.421801  2.03478
 3971.91  29.8164  1.0  2.64243  0.422017  2.03412
 3972.16  29.8143  1  2.64295  0.422221  2.03415
 3972.41  29.8122  1.0  2.64342  0.422416  2.03386
 3972.66  29.8102  1  2.64403  0.422609  2.03366
 3972.91  29.8081  1.0  2.64463  0.422839  2.03338
 3973.16  29.806  1  2.64522  0.423039  2.03273
 3973.41  29.804  1.0  2.6457  0.423263  2.03243
 3973.66  29.8019  1  2.64625  0.423443  2.03237
 3973.91  29.7998  1.0  2.6468  0.423639  2.0321
 3974.16  29.7978  1  2.64732  0.423874  2.03157
 3974.41  29.7957  1.0  2.64794  0.424091  2.03127
 3974.66  29.7937  1  2.64839  0.424254  2.03138
 3974.91  29.7916  1.0  2.64831  0.423439  2.01242
 3975.16  29.7895  1  2.64947  0.424629  2.0293
 3975.41  29.7875  1.0  2.64999  0.424879  2.03003
 3975.66  29.7854  1  2.65056  0.425081  2.02968
 3975.91  29.7833  1.0  2.651  0.425297  2.02909
 3976.16  29.7813  1  2.65162  0.425503  2.02962
 3976.41  29.7792  1.0  2.65227  0.425701  2.02879
 3976.66  29.7772  1  2.65277  0.425916  2.02852
 3976.91  29.7751  1.0  2.65326  0.426143  2.02835
 3977.16  29.773  1  2.65384  0.426342  2.02757
 3977.41  29.771  1.0  2.65446  0.426554  2.02725
 3977.66  29.7689  1  2.65501  0.426764  2.02697
 3977.91  29.7669  1.0  2.65551  0.426969  2.02664
 3978.16  29.7648  1  2.65605  0.427178  2.02655
 3978.41  29.7627  1.0  2.6566  0.427366  2.02593
 3978.66  29.7607  1  2.6571  0.427567  2.02579
 3978.91  29.7586  1.0  2.65763  0.427795  2.02557
 3988.91  29.6765  1  2.68116  0.43651  2.0139
 3998.91  29.5949  1.0  2.70644  0.445367  1.99818
 4008.91  29.5138  1  2.73389  0.454895  1.985
 4018.91  29.4331  1.0  2.74347  0.462315  1.97043
 4028.91  29.3529  1  2.77364  0.472876  1.95817
 4038.91  29.2732  1.0  2.79744  0.481963  1.93819
 4048.91  29.1939  1  2.81721  0.491151  1.92455
 4058.91  29.115  1.0  2.84358  0.501387  1.90571
 4068.91  29.0367  1  2.86951  0.511756  1.88807
 4078.91  28.9587  1.0  2.89229  0.52174  1.86699
 4088.9  28.8812  1  2.91345  0.531841  1.84942
 4098.9  28.8041  1.0  2.93523  0.542261  1.83202
 4108.9  28.7275  1  2.95656  0.552411  1.8057
 4118.9  28.6513  1.0  2.97755  0.562661  1.77907
 4128.9  28.5755  1  2.999  0.573468  1.7576
 4138.9  28.5001  1.0  3.02149  0.584912  1.74232
 4148.9  28.4252  1  3.04331  0.596054  1.71763
 4158.9  28.3506  1.0  3.06517  0.607161  1.67784
 4168.9  28.2765  1  3.08758  0.619115  1.64172
 4178.9  28.2028  1.0  3.10921  0.630711  1.61203
 4188.9  28.1295  1  3.13032  0.64244  1.58155
 4198.9  28.0565  1.0  3.14927  0.653706  1.54654
 4208.9  27.984  1  3.16381  0.664977  1.52443
 4218.9  27.9119  1.0  2.67086  0.577658  1.4563
 4228.9  27.8401  1  3.22926  0.694751  1.47169
 4238.9  27.7688  1.0  3.24375  0.706834  1.45347
 4248.9  27.6978  1  3.26158  0.719324  1.42454
 4258.89  27.6272  1.0  3.28072  0.732406  1.39859
 4268.89  27.557  1  3.2992  0.745107  1.36418
 4278.89  27.4871  1.0  3.32034  0.759372  1.34691
 4288.89  27.4177  1  3.34047  0.773065  1.31715
 4298.89  27.3485  1.0  3.36041  0.787229  1.29326
 4308.89  27.2798  1  3.37969  0.801146  1.26325
 4318.89  27.2114  1.0  3.39853  0.815285  1.23479
 4328.89  27.1434  1  3.41811  0.830031  1.21109
 4338.89  27.0757  1.0  3.43802  0.8451  1.18839
 4348.89  27.0084  1  3.45744  0.860458  1.17045
 4358.89  26.9414  1.0  3.4766  0.875885  1.15014
 4368.89  26.8748  1  3.49645  0.891964  1.13702
 4378.89  26.8085  1.0  3.51425  0.90718  1.11085
 4388.89  26.7425  1  3.53195  0.922656  1.0872
 4398.89  26.6769  1.0  3.54866  0.937872  1.05664
 4408.89  26.6117  1  3.56585  0.953459  1.02993
 4418.88  26.5467  1.0  3.58368  0.969758  1.01022
 4428.88  26.4821  1  3.60157  0.98628  0.991938
 4438.88  26.4178  1.0  3.61816  1.00253  0.968078
 4448.88  26.3539  1  3.63616  1.01951  0.949509
 4458.88  26.2902  1.0  3.65436  1.03693  0.931376
 4468.88  26.2269  1  3.67189  1.05421  0.864052
 4478.88  26.1639  1.0  3.68987  1.07188  0.864587
 4488.88  26.1012  1  3.70691  1.08945  0.844557
 4498.88  26.0388  1.0  3.72409  1.10722  0.829946
 4508.88  25.9768  1  3.7407  1.12529  0.815373
 4518.88  25.915  1.0  3.75708  1.14339  0.799871
 4528.88  25.8536  1  3.77352  1.16162  0.788069
 4538.88  25.7924  1.0  3.78987  1.18009  0.773791
 4548.88  25.7316  1  3.80547  1.19839  0.755136
 4558.88  25.671  1.0  3.81974  1.21618  0.734386
 4568.88  25.6108  1  3.83422  1.23433  0.715463
 4578.88  25.5508  1.0  3.84946  1.25313  0.70115
 4588.88  25.4911  1  3.86422  1.27194  0.68711
 4598.87  25.4318  1.0  3.87902  1.29095  0.67516
 4608.875  25.3727  1  3.89389  1.31017  0.663315
 4618.87  25.3138  1.0  3.90912  1.32983  0.654412
 4628.87  25.2553  1  3.92697  1.34968  0.626943
 4638.87  25.1971  1.0  3.92517  1.36441  0.631561
 4648.87  25.1391  1  3.96049  1.39166  0.628026
 4658.87  25.0814  1.0  3.976  1.41208  0.62086
 4668.87  25.024  1  3.99083  1.43235  0.611821
 4678.87  24.9668  1.0  4.00398  1.45219  0.60125
 4688.87  24.9099  1  4.01749  1.47227  0.592297
 4698.87  24.8533  1.0  4.02949  1.49187  0.581813
 4708.87  24.797  1  4.04129  1.51167  0.572511
 4718.87  24.7409  1.0  4.0548  1.53236  0.568758
 4728.87  24.6851  1  4.06824  1.55312  0.563529
 4738.87  24.6295  1.0  4.08035  1.57353  0.558078
 4748.87  24.5743  1  4.09158  1.59367  0.551553
 4758.86  24.5192  1.0  4.10547  1.61507  0.54788
 4768.87  24.4644  1  4.11983  1.63686  0.546223
 4778.86  24.4099  1.0  4.13272  1.65818  0.544497
 4788.86  24.3556  1  4.14361  1.6789  0.542707
 4798.86  24.3016  1.0  4.15399  1.69945  0.54205
 4808.86  24.2478  1  4.16536  1.72065  0.545145
 4818.86  24.1942  1.0  4.17663  1.74207  0.550148
 4828.86  24.1409  1  4.18842  1.76388  0.556754
 4838.86  24.0879  1.0  4.20122  1.78625  0.565851
 4848.86  24.0351  1  4.21289  1.80827  0.575194
 4858.86  23.9825  1.0  4.22303  1.82979  0.585438
 4868.86  23.9302  1  4.23446  1.85206  0.598013
 4878.86  23.8781  1.0  4.24567  1.87432  0.61158
 4888.86  23.8262  1  4.25589  1.89631  0.626011
 4898.86  23.7746  1.0  4.2661  1.91839  0.641659
 4908.86  23.7232  1  4.2761  1.94053  0.658846
 4918.86  23.672  1.0  4.28422  1.96187  0.676463
 4928.85  23.621  1  4.29172  1.98314  0.695241
 4938.85  23.5703  1.0  4.30066  2.00521  0.716842
 4948.85  23.5198  1  4.31055  2.02767  0.738531
 4958.85  23.4695  1.0  4.31989  2.0502  0.761836
 4968.85  23.4195  1  4.32891  2.07258  0.786412
 4978.85  23.3697  1.0  4.33791  2.09503  0.811974
 4988.85  23.3201  1  4.34353  2.11596  0.837955
 4998.85  23.2707  1.0  4.35514  2.13983  0.865295
 5008.85  23.2215  1  4.36243  2.16175  0.893021
 5018.85  23.1725  1.0  4.37153  2.18457  0.92171
 5028.85  23.1238  1  4.37917  2.20679  0.950738
 5038.85  23.0752  1.0  4.38664  2.22893  0.980309
 5048.85  23.0269  1  4.39333  2.25087  1.01043
 5058.85  22.9787  1.0  4.39965  2.27251  1.04127
 5068.85  22.9308  1  4.40584  2.29424  1.07244
 5078.84  22.8831  1.0  4.41272  2.31635  1.10511
 5088.84  22.8356  1  4.42005  2.33882  1.13913
 5098.84  22.7883  1.0  4.4259  2.36052  1.17355
 5108.84  22.7412  1  4.43063  2.38167  1.20875
 5118.84  22.6943  1.0  4.43649  2.40338  1.24496
 5128.84  22.6476  1  4.44281  2.42563  1.28249
 5138.84  22.6011  1.0  4.44964  2.44805  1.32154
 5148.84  22.5548  1  4.4563  2.47052  1.36051
 5158.84  22.5086  1.0  4.46315  2.49299  1.39951