File: MEX1_29686_processed.xdi
# XDI/1.0
# Mono.d_spacing: 3.13897
# Reference.Element: Hf
# ROI.start_bin: nan
# ROI.end_bin: nan
# Element.symbol: None
# Element.edge: None
# Processing.version: spec_processing_library v0.3.5
# Column.1: energy
# Column.2: bragg
# Column.3: count_time seconds
# Column.4: i0
# Column.5: i1
# Column.6: i2
# Describe.Column.1: energy - MEX1ES01ZEB01:CALC_ENERGY_EV
# Describe.Column.2: bragg - MEX1ES01ZEB01:BRAGG_WITH_OFFSET
# Describe.Column.3: count_time - MEX1ES01ZEB01:GATE_TIME_SET
# Describe.Column.4: i0 - MEX1ES01DAQ01:ch1:S:MeanValue_RBV
# Describe.Column.5: i1 - MEX1ES01DAQ01:ch2:S:MeanValue_RBV
# Describe.Column.6: i2 - MEX1ES01DAQ01:ch3:S:MeanValue_RBV
# Samples: [417, 417, 417, 417, 417, 417]
# ///
# Hf foil
#
# xdi from default mda2xdi preset for mex1.
#--------
#  energy   bragg   count_time   i0   i1   i2
 9360.42  12.1802  1.0  2.90663  2.3546  4.67037
 9370.44  12.1669  1  2.90041  2.35116  4.67732
 9380.44  12.1538  1.0  2.89411  2.34758  4.6841
 9390.44  12.1406  1  2.88787  2.34404  4.69073
 9400.44  12.1275  1.0  2.88158  2.34043  4.69704
 9410.43  12.1144  1  2.87524  2.33683  4.70322
 9420.44  12.1014  1.0  2.86901  2.3333  4.70929
 9430.43  12.0884  1  2.86285  2.3298  4.71538
 9440.43  12.0754  1.0  2.85594  2.32569  4.72012
 9450.43  12.0624  1  2.84995  2.32237  4.72584
 9460.43  12.0495  1.0  2.84379  2.31877  4.73057
 9470.43  12.0365  1  2.83753  2.3152  4.7351
 9480.43  12.0237  1.0  2.83137  2.31157  4.73824
 9490.43  12.0108  1  2.82514  2.308  4.74004
 9500.43  11.998  1.0  2.81893  2.30429  4.73967
 9510.43  11.9852  1  2.8127  2.30068  4.7345
 9520.42  11.9724  1.0  2.80653  2.29709  4.72088
 9530.42  11.9597  1  2.80038  2.29352  4.686
 9540.42  11.9469  1.0  2.79417  2.28977  4.5867
 9540.66  11.9466  1  2.79391  2.28967  4.58239
 9540.91  11.9463  1.0  2.79379  2.28953  4.57772
 9541.16  11.946  1  2.79357  2.28944  4.57302
 9541.41  11.9457  1.0  2.79339  2.28927  4.56803
 9541.66  11.9454  1  2.79311  2.28909  4.56269
 9541.91  11.945  1.0  2.79286  2.28893  4.55769
 9542.16  11.9447  1  2.79272  2.28887  4.55213
 9542.41  11.9444  1.0  2.7925  2.28883  4.54647
 9542.66  11.9441  1  2.7923  2.28862  4.54057
 9542.91  11.9438  1.0  2.79207  2.2885  4.53424
 9543.16  11.9435  1  2.79192  2.28839  4.52796
 9543.41  11.9431  1.0  2.79172  2.28826  4.52102
 9543.66  11.9428  1  2.79146  2.28809  4.51457
 9543.91  11.9425  1.0  2.79135  2.28798  4.50717
 9544.16  11.9422  1  2.79107  2.28783  4.49981
 9544.41  11.9419  1.0  2.79085  2.2877  4.49193
 9544.66  11.9415  1  2.79062  2.28754  4.4837
 9544.91  11.9412  1.0  2.79046  2.28742  4.47539
 9545.16  11.9409  1  2.79022  2.28725  4.46648
 9545.41  11.9406  1.0  2.78995  2.28705  4.45733
 9545.66  11.9403  1  2.78983  2.28705  4.44787
 9545.91  11.94  1.0  2.78959  2.28689  4.43779
 9546.16  11.9396  1  2.78944  2.28678  4.42736
 9546.41  11.9393  1.0  2.78927  2.28668  4.41646
 9546.66  11.939  1  2.78906  2.28657  4.40502
 9546.91  11.9387  1.0  2.78896  2.28648  4.3928
 9547.16  11.9384  1  2.78871  2.28629  4.38002
 9547.41  11.9381  1.0  2.78841  2.28609  4.36679
 9547.66  11.9377  1  2.78823  2.28593  4.35297
 9547.91  11.9374  1.0  2.78807  2.28593  4.33854
 9548.16  11.9371  1  2.78794  2.28577  4.32288
 9548.41  11.9368  1.0  2.78763  2.28561  4.30642
 9548.66  11.9365  1  2.78737  2.28551  4.28922
 9548.91  11.9362  1.0  2.78724  2.28541  4.27139
 9549.16  11.9358  1  2.78702  2.28524  4.25221
 9549.41  11.9355  1.0  2.7869  2.28519  4.23191
 9549.66  11.9352  1  2.78662  2.28504  4.21105
 9549.91  11.9349  1.0  2.78649  2.28486  4.18833
 9550.16  11.9346  1  2.78627  2.28476  4.16433
 9550.41  11.9343  1.0  2.78599  2.28454  4.1385
 9550.66  11.9339  1  2.78578  2.28439  4.11135
 9550.91  11.9336  1.0  2.78555  2.28428  4.08234
 9551.16  11.9333  1  2.78536  2.2842  4.05232
 9551.41  11.933  1.0  2.78526  2.28404  4.01939
 9551.66  11.9327  1  2.78496  2.28396  3.98426
 9551.91  11.9324  1.0  2.7847  2.28378  3.94646
 9552.16  11.932  1  2.78461  2.28363  3.90622
 9552.41  11.9317  1.0  2.78448  2.28351  3.86301
 9552.66  11.9314  1  2.78418  2.28346  3.81661
 9552.91  11.9311  1.0  2.78397  2.28328  3.76645
 9553.16  11.9308  1  2.78376  2.28308  3.71206
 9553.41  11.9304  1.0  2.7835  2.28294  3.65429
 9553.66  11.9301  1  2.78335  2.28289  3.59165
 9553.91  11.9298  1.0  2.78318  2.28268  3.52373
 9554.16  11.9295  1  2.78441  2.28376  3.45219
 9554.41  11.9292  1.0  2.78944  2.28794  3.37819
 9554.66  11.9289  1  2.78931  2.28787  3.29238
 9554.91  11.9285  1.0  2.78913  2.28773  3.19929
 9555.16  11.9282  1  2.78894  2.28767  3.09853
 9555.41  11.9279  1.0  2.78873  2.28752  2.98977
 9555.66  11.9276  1  2.78845  2.28733  2.87202
 9555.91  11.9273  1.0  2.78841  2.28716  2.74681
 9556.16  11.927  1  2.78817  2.28714  2.61289
 9556.41  11.9267  1.0  2.78791  2.28697  2.47084
 9556.66  11.9263  1  2.78762  2.28673  2.32103
 9556.91  11.926  1.0  2.78745  2.28671  2.1664
 9557.16  11.9257  1  2.78727  2.28662  2.00957
 9557.41  11.9254  1.0  2.78713  2.28649  1.85107
 9557.66  11.9251  1  2.78683  2.2863  1.69509
 9557.91  11.9248  1.0  2.7866  2.2861  1.54334
 9558.16  11.9244  1  2.7864  2.286  1.40028
 9558.41  11.9241  1.0  2.78626  2.28592  1.26676
 9558.66  11.9238  1  2.7861  2.28583  1.14745
 9558.91  11.9235  1.0  2.78579  2.28558  1.04175
 9559.16  11.9232  1  2.78553  2.28545  0.949995
 9559.41  11.9229  1.0  2.78533  2.28537  0.873438
 9559.66  11.9225  1  2.78525  2.28531  0.808659
 9559.91  11.9222  1.0  2.78507  2.28516  0.755319
 9560.16  11.9219  1  2.78479  2.28502  0.711577
 9560.41  11.9216  1.0  2.78462  2.28485  0.676164
 9560.66  11.9213  1  2.78436  2.2847  0.647215
 9560.91  11.921  1.0  2.78408  2.28448  0.623363
 9561.16  11.9206  1  2.78372  2.28425  0.6038
 9561.41  11.9203  1.0  2.78356  2.28424  0.587629
 9561.66  11.92  1  2.78345  2.28399  0.574603
 9561.91  11.9197  1.0  2.78337  2.28401  0.564058
 9562.16  11.9194  1  2.78326  2.28392  0.556361
 9562.41  11.9191  1.0  2.78287  2.2837  0.551576
 9562.66  11.9187  1  2.78265  2.28359  0.550238
 9562.91  11.9184  1.0  2.7823  2.28329  0.552437
 9563.16  11.9181  1  2.78228  2.28339  0.558797
 9563.41  11.9178  1.0  2.78216  2.28327  0.569357
 9563.66  11.9175  1  2.78189  2.28313  0.58449
 9563.91  11.9172  1.0  2.78142  2.28272  0.604137
 9564.16  11.9168  1  2.78159  2.28286  0.628869
 9564.41  11.9165  1.0  2.78134  2.28272  0.657994
 9564.66  11.9162  1  2.78103  2.28261  0.691166
 9564.91  11.9159  1.0  2.78078  2.28237  0.728101
 9565.16  11.9156  1  2.78025  2.28202  0.767644
 9565.41  11.9153  1.0  2.78046  2.28219  0.809822
 9565.66  11.9149  1  2.78043  2.2821  0.853393
 9565.91  11.9146  1.0  2.78015  2.28193  0.89754
 9566.16  11.9143  1  2.77978  2.2818  0.942171
 9566.41  11.914  1.0  2.77924  2.28131  0.98563
 9566.66  11.9137  1  2.77956  2.28157  1.02883
 9566.91  11.9134  1.0  2.77941  2.28146  1.07027
 9567.16  11.9131  1  2.77907  2.28128  1.11043
 9567.41  11.9127  1.0  2.77834  2.2807  1.14815
 9567.66  11.9124  1  2.77864  2.28106  1.18488
 9567.91  11.9121  1.0  2.7785  2.28098  1.21969
 9568.16  11.9118  1  2.77826  2.28068  1.25277
 9568.41  11.9115  1.0  2.77799  2.28052  1.28382
 9568.66  11.9112  1  2.77792  2.28051  1.31262
 9568.91  11.9108  1.0  2.77768  2.28037  1.33954
 9569.16  11.9105  1  2.7775  2.28025  1.36461
 9569.41  11.9102  1.0  2.77729  2.28014  1.38759
 9569.66  11.9099  1  2.77703  2.27996  1.40885
 9569.91  11.9096  1.0  2.77682  2.27974  1.42834
 9570.16  11.9093  1  2.77672  2.27968  1.44651
 9570.41  11.9089  1.0  2.77646  2.27958  1.46341
 9570.66  11.9086  1  2.77625  2.27944  1.4792
 9570.91  11.9083  1.0  2.77618  2.27941  1.49434
 9571.16  11.908  1  2.77596  2.27933  1.50914
 9571.41  11.9077  1.0  2.77569  2.27912  1.52362
 9571.66  11.9074  1  2.77551  2.27896  1.53833
 9571.91  11.9071  1.0  2.77527  2.27882  1.55337
 9572.16  11.9067  1  2.7751  2.27868  1.5687
 9572.41  11.9064  1.0  2.77478  2.27856  1.58478
 9572.66  11.9061  1  2.77458  2.27837  1.60148
 9572.91  11.9058  1.0  2.77441  2.27826  1.61861
 9573.16  11.9055  1  2.77414  2.27806  1.63681
 9573.41  11.9052  1.0  2.7741  2.278  1.65511
 9573.66  11.9048  1  2.77385  2.27793  1.67409
 9573.91  11.9045  1.0  2.77365  2.27779  1.69346
 9574.16  11.9042  1  2.77338  2.27761  1.71258
 9574.41  11.9039  1.0  2.7732  2.27751  1.73226
 9574.66  11.9036  1  2.77301  2.2774  1.75137
 9574.91  11.9033  1.0  2.7728  2.27723  1.77013
 9575.16  11.903  1  2.77241  2.27698  1.78825
 9575.41  11.9026  1.0  2.77231  2.27685  1.80591
 9575.66  11.9023  1  2.77219  2.27672  1.82239
 9575.91  11.902  1.0  2.77201  2.27666  1.83845
 9576.16  11.9017  1  2.77174  2.27648  1.85329
 9576.41  11.9014  1.0  2.77142  2.27626  1.86703
 9576.66  11.9011  1  2.77133  2.27618  1.8798
 9576.91  11.9007  1.0  2.77113  2.27601  1.89123
 9577.16  11.9004  1  2.77089  2.27595  1.90159
 9577.41  11.9001  1.0  2.7707  2.27577  1.9106
 9577.66  11.8998  1  2.77038  2.27559  1.91845
 9577.91  11.8995  1.0  2.77023  2.27548  1.92526
 9578.16  11.8992  1  2.7701  2.27541  1.9307
 9578.41  11.8989  1.0  2.76989  2.27535  1.93498
 9578.66  11.8985  1  2.76954  2.27506  1.93806
 9578.91  11.8982  1.0  2.76916  2.2748  1.94015
 9579.16  11.8979  1  2.76906  2.27467  1.94164
 9579.41  11.8976  1.0  2.76906  2.2747  1.94214
 9579.66  11.8973  1  2.76884  2.27457  1.94192
 9579.91  11.897  1.0  2.76856  2.27437  1.94089
 9580.16  11.8967  1  2.76815  2.27408  1.93928
 9580.41  11.8963  1.0  2.76794  2.27399  1.93742
 9580.66  11.896  1  2.76797  2.27408  1.93556
 9580.91  11.8957  1.0  2.76782  2.2739  1.93317
 9581.16  11.8954  1  2.7675  2.27371  1.93055
 9581.41  11.8951  1.0  2.76712  2.27341  1.92812
 9581.66  11.8948  1  2.76696  2.27333  1.92598
 9581.91  11.8944  1.0  2.76687  2.27327  1.92398
 9582.16  11.8941  1  2.76667  2.27319  1.92215
 9582.41  11.8938  1.0  2.76634  2.27305  1.92068
 9582.66  11.8935  1  2.76605  2.27274  1.91938
 9582.91  11.8932  1.0  2.7661  2.27273  1.9187
 9583.16  11.8929  1  2.76583  2.27262  1.91808
 9583.41  11.8926  1.0  2.76553  2.2724  1.91793
 9583.66  11.8922  1  2.76521  2.2722  1.91792
 9583.91  11.8919  1.0  2.76493  2.27209  1.91847
 9584.16  11.8916  1  2.76496  2.27208  1.91906
 9584.41  11.8913  1.0  2.76478  2.272  1.92005
 9584.66  11.891  1  2.76456  2.27177  1.92095
 9584.91  11.8907  1.0  2.76428  2.27162  1.92203
 9585.16  11.8904  1  2.76419  2.27159  1.92347
 9585.41  11.89  1.0  2.76393  2.27135  1.92465
 9585.66  11.8897  1  2.76367  2.27123  1.92576
 9585.91  11.8894  1.0  2.76362  2.27117  1.92713
 9586.16  11.8891  1  2.7634  2.27111  1.92858
 9586.41  11.8888  1.0  2.7632  2.27095  1.92997
 9586.66  11.8885  1  2.76297  2.27081  1.93112
 9586.91  11.8882  1.0  2.7628  2.2707  1.93246
 9587.16  11.8878  1  2.76273  2.27054  1.93386
 9587.41  11.8875  1.0  2.76251  2.27043  1.93542
 9587.66  11.8872  1  2.76224  2.27032  1.93685
 9587.91  11.8869  1.0  2.76204  2.27012  1.93843
 9588.15  11.8866  1  2.76167  2.26988  1.94004
 9588.4  11.8863  1.0  2.76148  2.26977  1.94195
 9588.66  11.886  1  2.76275  2.27091  1.94512
 9588.91  11.8856  1.0  2.76777  2.27495  1.95083
 9589.16  11.8853  1  2.76736  2.27479  1.95329
 9589.41  11.885  1.0  2.76715  2.27464  1.95555
 9589.66  11.8847  1  2.76706  2.2746  1.95835
 9589.91  11.8844  1.0  2.76683  2.27442  1.96118
 9590.16  11.8841  1  2.76664  2.27427  1.96411
 9590.41  11.8838  1.0  2.7664  2.27413  1.96702
 9590.66  11.8834  1  2.76616  2.27402  1.97039
 9590.91  11.8831  1.0  2.76605  2.27388  1.97335
 9591.16  11.8828  1  2.76579  2.27373  1.97661
 9591.41  11.8825  1.0  2.76564  2.27366  1.97966
 9591.66  11.8822  1  2.76539  2.27346  1.9826
 9591.91  11.8819  1.0  2.76517  2.27331  1.98539
 9592.16  11.8816  1  2.76492  2.27317  1.98814
 9592.4  11.8812  1.0  2.76472  2.27304  1.9904
 9592.65  11.8809  1  2.76462  2.27293  1.99277
 9592.9  11.8806  1.0  2.76429  2.27273  1.99479
 9593.15  11.8803  1  2.764  2.27254  1.99646
 9593.4  11.88  1.0  2.76385  2.27248  1.99792
 9593.65  11.8797  1  2.76367  2.27236  1.99895
 9593.9  11.8794  1.0  2.76345  2.27228  1.99974
 9594.15  11.879  1  2.76324  2.27208  2.00048
 9594.41  11.8787  1.0  2.76297  2.27192  2.00073
 9594.65  11.8784  1  2.76279  2.27178  2.00089
 9594.9  11.8781  1.0  2.76269  2.2716  2.0007
 9595.15  11.8778  1  2.76243  2.27147  2.00021
 9595.4  11.8775  1.0  2.76221  2.27142  1.9997
 9595.65  11.8772  1  2.76205  2.27126  1.99923
 9595.91  11.8768  1.0  2.76181  2.27116  1.99828
 9596.15  11.8765  1  2.76147  2.27097  1.99725
 9596.4  11.8762  1.0  2.76129  2.27068  1.99611
 9596.65  11.8759  1  2.76098  2.27058  1.99495
 9596.9  11.8756  1.0  2.76097  2.27056  1.99386
 9597.15  11.8753  1  2.76077  2.27047  1.99256
 9597.4  11.875  1.0  2.76055  2.27031  1.99137
 9597.65  11.8746  1  2.76026  2.27006  1.98987
 9597.9  11.8743  1.0  2.76015  2.27  1.98872
 9598.15  11.874  1  2.75998  2.26987  1.98755
 9598.4  11.8737  1.0  2.75978  2.26979  1.98624
 9598.65  11.8734  1  2.75941  2.26952  1.98487
 9598.9  11.8731  1.0  2.75911  2.26933  1.98365
 9599.15  11.8728  1  2.75907  2.26928  1.98249
 9599.4  11.8725  1.0  2.7589  2.26916  1.98138
 9599.65  11.8721  1  2.75866  2.26905  1.9804
 9599.9  11.8718  1.0  2.75844  2.26892  1.97923
 9600.15  11.8715  1  2.75815  2.26865  1.97812
 9600.4  11.8712  1.0  2.75809  2.26869  1.97727
 9600.65  11.8709  1  2.75785  2.26849  1.97624
 9600.9  11.8706  1.0  2.75758  2.26833  1.97523
 9601.15  11.8703  1  2.75741  2.26816  1.97422
 9601.4  11.8699  1.0  2.75708  2.26796  1.97313
 9601.65  11.8696  1  2.75708  2.26803  1.97241
 9601.9  11.8693  1.0  2.75681  2.26783  1.97138
 9602.15  11.869  1  2.75657  2.26759  1.97033
 9602.4  11.8687  1.0  2.75628  2.26746  1.96909
 9602.65  11.8684  1  2.75613  2.26739  1.96827
 9602.9  11.8681  1.0  2.756  2.26732  1.96714
 9603.15  11.8677  1  2.75583  2.26715  1.96584
 9603.4  11.8674  1.0  2.75554  2.26699  1.96474
 9603.65  11.8671  1  2.75527  2.26682  1.96335
 9603.9  11.8668  1.0  2.7553  2.26682  1.96218
 9604.15  11.8665  1  2.75504  2.26667  1.96099
 9604.4  11.8662  1.0  2.75488  2.26652  1.95967
 9604.65  11.8659  1  2.75444  2.2663  1.95825
 9604.9  11.8656  1.0  2.75438  2.26623  1.95695
 9605.15  11.8652  1  2.75424  2.26614  1.95565
 9605.4  11.8649  1.0  2.75385  2.26584  1.95433
 9605.65  11.8646  1  2.75369  2.26576  1.95313
 9605.9  11.8643  1.0  2.75349  2.26569  1.95191
 9606.15  11.864  1  2.75335  2.26555  1.95063
 9606.4  11.8637  1.0  2.75318  2.26548  1.94948
 9606.65  11.8634  1  2.75298  2.26525  1.94833
 9606.9  11.863  1.0  2.75271  2.26509  1.94728
 9607.15  11.8627  1  2.75239  2.26495  1.94625
 9607.4  11.8624  1.0  2.7523  2.26487  1.94528
 9607.65  11.8621  1  2.75221  2.26473  1.94438
 9607.9  11.8618  1.0  2.75187  2.2646  1.94353
 9608.15  11.8615  1  2.75166  2.26447  1.94265
 9608.4  11.8612  1.0  2.75146  2.2643  1.94192
 9608.65  11.8609  1  2.7513  2.26418  1.94121
 9608.9  11.8605  1.0  2.75107  2.26414  1.94052
 9609.15  11.8602  1  2.75088  2.2639  1.93982
 9609.4  11.8599  1.0  2.75066  2.26373  1.93919
 9609.65  11.8596  1  2.75041  2.26357  1.93871
 9609.9  11.8593  1.0  2.75021  2.26353  1.93819
 9610.15  11.859  1  2.75004  2.26338  1.93759
 9610.4  11.8587  1.0  2.74983  2.26319  1.9369
 9620.42  11.8461  1  2.74365  2.25944  1.96774
 9630.41  11.8337  1.0  2.73721  2.25563  2.00501
 9640.41  11.8212  1  2.72508  2.24697  1.96701
 9650.4  11.8088  1.0  2.71897  2.24315  1.94013
 9660.41  11.7964  1  2.71814  2.2438  1.93832
 9670.4  11.784  1.0  2.71086  2.2391  2.0062
 9680.4  11.7717  1  2.70478  2.23532  1.99338
 9690.4  11.7594  1.0  2.69847  2.23151  1.97567
 9700.4  11.7471  1  2.69227  2.22761  1.96006
 9710.4  11.7348  1.0  2.67646  2.21585  1.94247
 9720.4  11.7226  1  2.68019  2.22029  1.98888
 9730.4  11.7103  1.0  2.67325  2.21575  2.01219
 9740.4  11.6981  1  2.66746  2.21223  2.01317
 9750.39  11.686  1.0  2.66142  2.20847  1.98052
 9760.39  11.6738  1  2.65512  2.20448  1.96956
 9770.39  11.6617  1.0  2.64854  2.20025  1.99119
 9780.39  11.6496  1  2.6387  2.19326  2.00427
 9790.39  11.6376  1.0  2.63625  2.19251  2.02236
 9800.39  11.6255  1  2.63209  2.19023  2.02214
 9810.38  11.6135  1.0  2.62561  2.18612  2.00385
 9820.39  11.6015  1  2.61946  2.18211  1.99693
 9830.39  11.5896  1.0  2.5998  2.16699  2.00478
 9840.38  11.5776  1  2.60631  2.17363  2.02359
 9850.38  11.5657  1.0  2.60067  2.17005  2.03167
 9860.38  11.5538  1  2.59473  2.16632  2.0407
 9870.38  11.542  1.0  2.58891  2.16255  2.04258
 9880.38  11.5301  1  2.58272  2.15865  2.03911
 9890.38  11.5183  1.0  2.57683  2.15477  2.03323
 9900.38  11.5065  1  2.57083  2.15089  2.04216
 9910.37  11.4948  1.0  2.56489  2.14708  2.05687
 9920.37  11.483  1  2.5588  2.14316  2.06583
 9930.37  11.4713  1.0  2.55279  2.13929  2.07139
 9940.37  11.4596  1  2.54641  2.13503  2.07189
 9950.37  11.4479  1.0  2.53843  2.12953  2.06798
 9960.37  11.4363  1  2.53202  2.12518  2.06918
 9970.37  11.4246  1.0  2.52939  2.12412  2.07834
 9980.37  11.4131  1  2.44655  2.05557  2.02123
 9990.36  11.4015  1.0  2.48643  2.09012  2.06664
 10000.4  11.3899  1  2.50082  2.10336  2.09294
 10010.4  11.3784  1.0  2.51342  2.115  2.11372
 10020.4  11.3669  1  2.46331  2.07395  2.07786
 10030.4  11.3554  1.0  2.50075  2.10643  2.11639
 10040.4  11.3439  1  2.49502  2.10269  2.11815
 10050.4  11.3325  1.0  2.48909  2.09876  2.12283
 10060.4  11.3211  1  2.48315  2.09484  2.12838
 10070.4  11.3097  1.0  2.47733  2.09092  2.13397
 10080.3  11.2984  1  2.47147  2.087  2.14086
 10090.4  11.287  1.0  2.4655  2.08298  2.14954
 10100.3  11.2757  1  2.45969  2.07909  2.1565
 10110.3  11.2644  1.0  2.4537  2.07509  2.15955
 10120.3  11.2531  1  2.44789  2.07112  2.15977
 10130.3  11.2419  1.0  2.44189  2.06708  2.15994
 10140.3  11.2306  1  2.43608  2.06312  2.1646
 10150.3  11.2194  1.0  2.43011  2.05908  2.17161
 10160.3  11.2082  1  2.42429  2.05519  2.17795
 10170.3  11.1971  1.0  2.4184  2.0511  2.18332
 10180.3  11.1859  1  2.4123  2.04697  2.18833
 10190.3  11.1748  1.0  2.4066  2.04304  2.19423
 10200.3  11.1637  1  2.4005  2.03882  2.1998
 10210.3  11.1527  1.0  2.39399  2.03429  2.2032
 10220.3  11.1416  1  2.3883  2.03045  2.20647
 10230.3  11.1306  1.0  2.38229  2.02619  2.20912
 10240.3  11.1196  1  2.377  2.02278  2.2131
 10250.3  11.1086  1.0  2.37086  2.01839  2.21725
 10260.3  11.0976  1  2.35903  2.00926  2.21653
 10270.3  11.0867  1.0  2.35979  2.01081  2.22863
 10280.3  11.0758  1  2.34663  2.00046  2.22717
 10290.3  11.0649  1.0  2.34938  2.00377  2.24045
 10300.3  11.054  1  2.34354  1.99974  2.24529
 10310.3  11.0431  1.0  2.33783  1.99575  2.25014
 10320.3  11.0323  1  2.33217  1.99175  2.25444
 10330.3  11.0215  1.0  2.32638  1.98771  2.25837
 10340.3  11.0107  1  2.32076  1.98378  2.26196
 10350.3  10.9999  1.0  2.31501  1.97976  2.26563
 10360.3  10.9892  1  2.30923  1.97574  2.26939
 10370.3  10.9784  1.0  2.30346  1.97161  2.27377
 10380.3  10.9677  1  2.29766  1.96759  2.27852
 10390.3  10.9571  1.0  2.29197  1.96346  2.28384
 10400.3  10.9464  1  2.28624  1.95948  2.28902
 10410.3  10.9357  1.0  2.28046  1.95544  2.29389
 10420.3  10.9251  1  2.27491  1.95149  2.2983
 10430.3  10.9145  1.0  2.26927  1.94745  2.30234
 10440.3  10.9039  1  2.26366  1.94346  2.30611
 10450.3  10.8934  1.0  2.25798  1.93946  2.31004
 10460.3  10.8828  1  2.25242  1.93547  2.31426
 10470.3  10.8723  1.0  2.24691  1.93152  2.31835
 10480.3  10.8618  1  2.24132  1.92757  2.32259
 10490.3  10.8514  1.0  2.23563  1.9235  2.3264
 10500.3  10.8409  1  2.23016  1.91956  2.33059
 10510.3  10.8305  1.0  2.22464  1.9156  2.3351
 10520.3  10.82  1  2.21902  1.91162  2.3398
 10530.3  10.8096  1.0  2.21227  1.90657  2.3433
 10540.3  10.7993  1  2.20519  1.90126  2.34604
 10550.3  10.7889  1.0  2.20201  1.89921  2.35273
 10560.3  10.7786  1  2.19678  1.89554  2.35701
 10570.3  10.7682  1.0  2.19087  1.89122  2.36072
 10580.3  10.7579  1  2.18586  1.8877  2.36503
 10590.3  10.7477  1.0  2.18059  1.88383  2.36937
 10600.3  10.7374  1  2.17504  1.87983  2.37344
 10610.3  10.7272  1.0  2.16716  1.87379  2.37477
 10620.3  10.717  1  2.16385  1.87171  2.3815
 10630.3  10.7068  1.0  2.15839  1.86774  2.38589
 10640.3  10.6966  1  2.15293  1.86367  2.39026
 10650.3  10.6864  1.0  2.14738  1.8597  2.39452
 10660.3  10.6763  1  2.13527  1.8499  2.39136
 10670.3  10.6662  1.0  2.12733  1.84372  2.39297
 10680.3  10.6561  1  2.12602  1.84334  2.40138
 10690.3  10.646  1.0  2.12645  1.8444  2.41098
 10700.3  10.6359  1  2.12112  1.84047  2.41228
 10710.3  10.6259  1.0  2.11569  1.83649  2.40853
 10720.3  10.6158  1  2.11035  1.83253  2.38541
 10730.3  10.6058  1.0  2.10509  1.82871  2.20247
 10740.3  10.5958  1  2.09979  1.82475  0.866134
 10750.3  10.5859  1.0  2.09443  1.82087  1.44985
 10760.3  10.5759  1  2.08917  1.81689  1.59096
 10770.3  10.566  1.0  2.08381  1.81295  1.61586
 10780.3  10.5561  1  2.07828  1.80878  1.60665
 10790.3  10.5462  1.0  2.07287  1.80482  1.59495