File: MEX1_29699_processed.xdi
# XDI/1.0
# Mono.d_spacing: 3.13897
# Reference.Element: Mn
# ROI.start_bin: nan
# ROI.end_bin: nan
# Element.symbol: None
# Element.edge: None
# Processing.version: spec_processing_library v0.3.5
# Column.1: energy
# Column.2: bragg
# Column.3: count_time seconds
# Column.4: i0
# Column.5: i1
# Column.6: i2
# Describe.Column.1: energy - MEX1ES01ZEB01:CALC_ENERGY_EV
# Describe.Column.2: bragg - MEX1ES01ZEB01:BRAGG_WITH_OFFSET
# Describe.Column.3: count_time - MEX1ES01ZEB01:GATE_TIME_SET
# Describe.Column.4: i0 - MEX1ES01DAQ01:ch1:S:MeanValue_RBV
# Describe.Column.5: i1 - MEX1ES01DAQ01:ch2:S:MeanValue_RBV
# Describe.Column.6: i2 - MEX1ES01DAQ01:ch3:S:MeanValue_RBV
# Samples: [417, 417, 417, 417, 417, 417]
# ///
# Mn foil
#
# xdi from default mda2xdi preset for mex1.
#--------
#  energy   bragg   count_time   i0   i1   i2
 6338.74  18.1535  1.0  2.53697  2.5693  3.36522
 6348.75  18.1239  1  2.53523  2.57587  3.39536
 6358.75  18.0944  1.0  2.53339  2.58238  3.42543
 6368.75  18.065  1  2.53145  2.5887  3.45552
 6378.75  18.0357  1.0  2.52955  2.59512  3.48597
 6388.75  18.0065  1  2.52761  2.60139  3.51604
 6398.75  17.9774  1.0  2.52565  2.60762  3.54623
 6408.74  17.9484  1  2.52364  2.61372  3.5763
 6418.74  17.9195  1.0  2.52154  2.61966  3.60646
 6428.74  17.8907  1  2.51942  2.62566  3.63642
 6438.74  17.862  1.0  2.51739  2.63161  3.66643
 6448.74  17.8333  1  2.51563  2.63787  3.69695
 6458.74  17.8048  1.0  2.51187  2.64195  3.72472
 6468.74  17.7764  1  2.50788  2.64579  3.75157
 6478.74  17.748  1.0  2.50729  2.65319  3.78347
 6488.74  17.7197  1  2.50533  2.65896  3.81294
 6498.74  17.6916  1.0  2.5031  2.66452  3.8413
 6508.74  17.6635  1  2.50083  2.67  3.86824
 6518.73  17.6355  1.0  2.49845  2.67532  3.89135
 6518.98  17.6348  1  2.49832  2.67534  3.89159
 6519.23  17.6341  1.0  2.49818  2.6754  3.89214
 6519.48  17.6334  1  2.498  2.67546  3.89255
 6519.73  17.6327  1.0  2.49789  2.67549  3.89277
 6519.98  17.632  1  2.49774  2.67557  3.89321
 6520.23  17.6313  1.0  2.49769  2.67568  3.89361
 6520.48  17.6306  1  2.49756  2.67575  3.89416
 6520.73  17.6299  1.0  2.49753  2.67591  3.89445
 6520.98  17.6292  1  2.4975  2.67602  3.89486
 6521.23  17.6285  1.0  2.49736  2.6761  3.89541
 6521.48  17.6278  1  2.49719  2.67617  3.89579
 6521.73  17.6271  1.0  2.49705  2.67623  3.8958
 6521.98  17.6264  1  2.49689  2.67624  3.89612
 6522.23  17.6258  1.0  2.49678  2.67627  3.89635
 6522.48  17.6251  1  2.49668  2.67636  3.89668
 6522.73  17.6244  1.0  2.49664  2.67654  3.89702
 6522.98  17.6237  1  2.49658  2.67668  3.89751
 6523.23  17.623  1.0  2.49646  2.67677  3.8977
 6523.48  17.6223  1  2.49638  2.67679  3.89788
 6523.73  17.6216  1.0  2.49627  2.67689  3.89815
 6523.98  17.6209  1  2.49622  2.67706  3.89859
 6524.23  17.6202  1.0  2.4961  2.67711  3.89873
 6524.48  17.6195  1  2.49599  2.67714  3.89896
 6524.73  17.6188  1.0  2.49589  2.67728  3.89913
 6524.98  17.6181  1  2.49825  2.68005  3.90325
 6525.23  17.6174  1.0  2.50095  2.6831  3.90758
 6525.48  17.6167  1  2.50085  2.68313  3.90778
 6525.73  17.616  1.0  2.50066  2.68324  3.9077
 6525.98  17.6153  1  2.50063  2.68339  3.90791
 6526.23  17.6146  1.0  2.50049  2.68344  3.90803
 6526.48  17.6139  1  2.5005  2.68356  3.90806
 6526.73  17.6132  1.0  2.50028  2.6836  3.90798
 6526.98  17.6125  1  2.50018  2.68366  3.90794
 6527.23  17.6118  1.0  2.50005  2.68383  3.90789
 6527.48  17.6111  1  2.50005  2.68395  3.90802
 6527.73  17.6104  1.0  2.49995  2.68402  3.90781
 6527.98  17.6097  1  2.49984  2.68408  3.90772
 6528.23  17.609  1.0  2.49969  2.6841  3.90728
 6528.48  17.6083  1  2.49961  2.68419  3.90729
 6528.73  17.6076  1.0  2.49958  2.68436  3.90705
 6528.98  17.6069  1  2.49935  2.68441  3.90661
 6529.23  17.6062  1.0  2.49927  2.68445  3.9061
 6529.48  17.6055  1  2.49918  2.68458  3.90577
 6529.73  17.6048  1.0  2.49913  2.68465  3.90523
 6529.98  17.6042  1  2.49894  2.6847  3.90449
 6530.23  17.6035  1.0  2.49884  2.68481  3.90384
 6530.48  17.6028  1  2.49872  2.68487  3.90334
 6530.73  17.6021  1.0  2.49856  2.68495  3.90232
 6530.98  17.6014  1  2.49848  2.68501  3.90146
 6531.23  17.6007  1.0  2.49834  2.68507  3.90047
 6531.48  17.6  1  2.49828  2.68523  3.89936
 6531.73  17.5993  1.0  2.49819  2.68534  3.89824
 6531.98  17.5986  1  2.49813  2.68543  3.89677
 6532.23  17.5979  1.0  2.498  2.68549  3.89529
 6532.48  17.5972  1  2.49782  2.68553  3.89336
 6532.73  17.5965  1.0  2.49775  2.68557  3.8915
 6532.98  17.5958  1  2.49756  2.68565  3.88907
 6533.23  17.5951  1.0  2.49756  2.68571  3.88666
 6533.48  17.5944  1  2.49749  2.68588  3.884
 6533.73  17.5937  1.0  2.49742  2.68604  3.88069
 6533.98  17.593  1  2.49733  2.68604  3.87681
 6534.23  17.5923  1.0  2.49712  2.68605  3.87239
 6534.48  17.5916  1  2.49702  2.68619  3.86733
 6534.73  17.5909  1.0  2.49687  2.6862  3.86134
 6534.98  17.5902  1  2.49677  2.68638  3.85423
 6535.23  17.5895  1.0  2.49668  2.68644  3.84578
 6535.48  17.5889  1  2.49659  2.68654  3.8351
 6535.73  17.5882  1.0  2.49649  2.68661  3.82178
 6535.98  17.5875  1  2.49638  2.6867  3.80451
 6536.23  17.5868  1.0  2.49624  2.68671  3.78123
 6536.48  17.5861  1  2.49612  2.68681  3.7492
 6536.73  17.5854  1.0  2.4961  2.68698  3.70445
 6536.98  17.5847  1  2.49599  2.68704  3.6419
 6537.23  17.584  1.0  2.4959  2.68718  3.56185
 6537.48  17.5833  1  2.49585  2.6872  3.46912
 6537.73  17.5826  1.0  2.4957  2.68726  3.3751
 6537.98  17.5819  1  2.49554  2.68731  3.28857
 6538.23  17.5812  1.0  2.49543  2.68743  3.21555
 6538.48  17.5805  1  2.4954  2.68759  3.15514
 6538.73  17.5798  1.0  2.49524  2.68752  3.10447
 6538.98  17.5791  1  2.49506  2.6876  3.06127
 6539.23  17.5784  1.0  2.49495  2.68771  3.02474
 6539.48  17.5777  1  2.49492  2.68781  2.99218
 6539.73  17.5771  1.0  2.4948  2.6879  2.96305
 6539.98  17.5764  1  2.49467  2.68802  2.93642
 6540.23  17.5757  1.0  2.49455  2.68806  2.91343
 6540.48  17.575  1  2.49443  2.68808  2.89479
 6540.73  17.5743  1.0  2.49434  2.68813  2.88173
 6540.98  17.5736  1  2.49421  2.68823  2.87385
 6541.23  17.5729  1.0  2.49417  2.68838  2.86945
 6541.48  17.5722  1  2.49405  2.68846  2.86562
 6541.73  17.5715  1.0  2.49387  2.68847  2.85976
 6541.98  17.5708  1  2.49376  2.68857  2.84977
 6542.23  17.5701  1.0  2.49368  2.68865  2.83519
 6542.48  17.5694  1  2.49354  2.68874  2.81638
 6542.73  17.5687  1.0  2.49346  2.68885  2.79482
 6542.98  17.568  1  2.49346  2.68897  2.77203
 6543.23  17.5673  1.0  2.49337  2.68905  2.74933
 6543.48  17.5667  1  2.49328  2.68918  2.72748
 6543.73  17.566  1.0  2.49308  2.68919  2.70707
 6543.98  17.5653  1  2.49303  2.68937  2.68836
 6544.23  17.5646  1.0  2.49297  2.6894  2.6702
 6544.48  17.5639  1  2.49285  2.68945  2.65149
 6544.73  17.5632  1.0  2.49269  2.68951  2.63122
 6544.98  17.5625  1  2.49258  2.68959  2.60819
 6545.23  17.5618  1.0  2.49238  2.6896  2.58238
 6545.48  17.5611  1  2.49232  2.68961  2.55365
 6545.73  17.5604  1.0  2.49221  2.6898  2.52307
 6545.98  17.5597  1  2.49209  2.68988  2.49044
 6546.23  17.559  1.0  2.49193  2.68988  2.45673
 6546.48  17.5583  1  2.49185  2.68992  2.42229
 6546.73  17.5576  1.0  2.49182  2.69011  2.38738
 6546.98  17.557  1  2.49166  2.69016  2.35187
 6547.23  17.5563  1.0  2.49155  2.69018  2.31622
 6547.48  17.5556  1  2.49143  2.69028  2.28067
 6547.73  17.5549  1.0  2.4914  2.69042  2.24528
 6547.98  17.5542  1  2.49131  2.69054  2.21078
 6548.23  17.5535  1.0  2.4912  2.69067  2.17662
 6548.48  17.5528  1  2.49109  2.69065  2.14298
 6548.73  17.5521  1.0  2.49095  2.69069  2.11046
 6548.98  17.5514  1  2.49085  2.69087  2.07839
 6549.23  17.5507  1.0  2.49072  2.69091  2.04747
 6549.48  17.55  1  2.49053  2.69086  2.01752
 6549.73  17.5493  1.0  2.49038  2.69093  1.98859
 6549.98  17.5487  1  2.49026  2.69104  1.96068
 6550.23  17.548  1.0  2.49018  2.69107  1.93416
 6550.48  17.5473  1  2.49003  2.69112  1.90856
 6550.73  17.5466  1.0  2.49004  2.69133  1.88417
 6550.98  17.5459  1  2.48992  2.69135  1.86106
 6551.23  17.5452  1.0  2.48976  2.69141  1.83896
 6551.48  17.5445  1  2.48959  2.69142  1.81787
 6551.73  17.5438  1.0  2.48946  2.6915  1.79766
 6551.98  17.5431  1  2.48937  2.69154  1.77826
 6552.23  17.5424  1.0  2.48935  2.69173  1.7598
 6552.48  17.5417  1  2.48923  2.69179  1.7421
 6552.73  17.541  1.0  2.48911  2.69185  1.7253
 6552.98  17.5404  1  2.489  2.69189  1.70978
 6553.23  17.5397  1.0  2.48888  2.69199  1.69576
 6553.48  17.539  1  2.48879  2.69208  1.68321
 6553.73  17.5383  1.0  2.48867  2.69218  1.67252
 6553.98  17.5376  1  2.48857  2.69221  1.66366
 6554.23  17.5369  1.0  2.48842  2.69228  1.65669
 6554.48  17.5362  1  2.48837  2.69242  1.65152
 6554.73  17.5355  1.0  2.48829  2.69253  1.64812
 6554.98  17.5348  1  2.48937  2.69387  1.64719
 6555.23  17.5341  1.0  2.49364  2.69868  1.65005
 6555.48  17.5335  1  2.49354  2.69881  1.65185
 6555.73  17.5328  1.0  2.49339  2.6988  1.65528
 6555.98  17.5321  1  2.49332  2.69892  1.6604
 6556.23  17.5314  1.0  2.49326  2.69902  1.66702
 6556.48  17.5307  1  2.49317  2.69921  1.67475
 6556.73  17.53  1.0  2.4931  2.69928  1.68328
 6556.98  17.5293  1  2.49293  2.69936  1.69226
 6557.23  17.5286  1.0  2.49278  2.69932  1.70142
 6557.48  17.5279  1  2.49265  2.69936  1.71103
 6557.73  17.5272  1.0  2.49261  2.69947  1.72031
 6557.98  17.5266  1  2.4925  2.6996  1.72984
 6558.23  17.5259  1.0  2.49236  2.69964  1.73914
 6558.48  17.5252  1  2.49215  2.6997  1.74818
 6558.73  17.5245  1.0  2.49219  2.69981  1.75707
 6558.98  17.5238  1  2.49214  2.69996  1.76558
 6559.23  17.5231  1.0  2.49203  2.7  1.77322
 6559.48  17.5224  1  2.49183  2.69998  1.78029
 6559.73  17.5217  1.0  2.49176  2.70018  1.7867
 6559.98  17.521  1  2.49172  2.7002  1.79222
 6560.23  17.5203  1.0  2.49154  2.70026  1.79684
 6560.48  17.5197  1  2.49142  2.70037  1.80063
 6560.73  17.519  1.0  2.49135  2.70042  1.80373
 6560.98  17.5183  1  2.49122  2.70055  1.80603
 6561.23  17.5176  1.0  2.49113  2.70055  1.80787
 6561.48  17.5169  1  2.49094  2.70056  1.80911
 6561.73  17.5162  1.0  2.49091  2.7007  1.81016
 6561.98  17.5155  1  2.4907  2.7007  1.81075
 6562.23  17.5148  1.0  2.4906  2.70077  1.81115
 6562.48  17.5141  1  2.49053  2.70091  1.81134
 6562.73  17.5135  1.0  2.49045  2.70101  1.81144
 6562.98  17.5128  1  2.49028  2.70105  1.81127
 6563.23  17.5121  1.0  2.49017  2.70114  1.81087
 6563.48  17.5114  1  2.49013  2.70125  1.81035
 6563.73  17.5107  1.0  2.49006  2.70137  1.80981
 6563.98  17.51  1  2.49001  2.70146  1.80911
 6564.23  17.5093  1.0  2.48994  2.70165  1.8084
 6564.48  17.5086  1  2.48978  2.70173  1.80761
 6564.73  17.5079  1.0  2.48957  2.70164  1.80672
 6564.98  17.5073  1  2.48944  2.70171  1.80598
 6565.23  17.5066  1.0  2.48938  2.70182  1.80518
 6565.48  17.5059  1  2.48926  2.70185  1.80449
 6565.73  17.5052  1.0  2.48916  2.70199  1.80372
 6565.98  17.5045  1  2.48905  2.70203  1.80317
 6566.23  17.5038  1.0  2.48892  2.70207  1.80266
 6566.48  17.5031  1  2.48882  2.70216  1.80223
 6566.73  17.5024  1.0  2.4888  2.70234  1.80201
 6566.98  17.5018  1  2.48868  2.70238  1.8018
 6567.23  17.5011  1.0  2.48859  2.70247  1.80188
 6567.48  17.5004  1  2.48842  2.70253  1.80188
 6567.73  17.4997  1.0  2.4883  2.70258  1.80214
 6567.98  17.499  1  2.48822  2.70269  1.80255
 6568.23  17.4983  1.0  2.48806  2.70263  1.80303
 6568.48  17.4976  1  2.48803  2.70285  1.80364
 6568.73  17.4969  1.0  2.48788  2.70287  1.80429
 6568.98  17.4963  1  2.48773  2.7029  1.80503
 6569.23  17.4956  1.0  2.48764  2.70297  1.80583
 6569.48  17.4949  1  2.48752  2.70302  1.80685
 6569.73  17.4942  1.0  2.48748  2.70316  1.80768
 6569.98  17.4935  1  2.48737  2.70324  1.8087
 6570.23  17.4928  1.0  2.48723  2.7033  1.80958
 6570.48  17.4921  1  2.48712  2.70336  1.81061
 6570.73  17.4914  1.0  2.48702  2.70349  1.8117
 6570.98  17.4908  1  2.48696  2.70355  1.81265
 6571.23  17.4901  1.0  2.48691  2.70369  1.81365
 6571.48  17.4894  1  2.48683  2.7038  1.81453
 6571.73  17.4887  1.0  2.4867  2.70384  1.81525
 6571.98  17.488  1  2.48655  2.70387  1.81601
 6572.23  17.4873  1.0  2.48653  2.70399  1.81671
 6572.48  17.4866  1  2.48636  2.70408  1.81714
 6572.73  17.486  1.0  2.4864  2.70429  1.81752
 6572.98  17.4853  1  2.48623  2.70438  1.81771
 6573.23  17.4846  1.0  2.48614  2.70446  1.81756
 6573.48  17.4839  1  2.48599  2.70441  1.8174
 6573.73  17.4832  1.0  2.48586  2.70453  1.81712
 6573.98  17.4825  1  2.48569  2.70454  1.81666
 6574.23  17.4818  1.0  2.48567  2.70463  1.816
 6574.48  17.4812  1  2.48554  2.70476  1.81534
 6574.73  17.4805  1.0  2.48546  2.70489  1.81464
 6574.98  17.4798  1  2.48538  2.70496  1.81382
 6575.23  17.4791  1.0  2.48529  2.70504  1.81297
 6575.48  17.4784  1  2.48511  2.70506  1.81202
 6575.73  17.4777  1.0  2.48503  2.7052  1.81098
 6575.98  17.477  1  2.48492  2.70525  1.81004
 6576.23  17.4763  1.0  2.48484  2.70526  1.809
 6576.48  17.4757  1  2.48468  2.70531  1.80811
 6576.73  17.475  1.0  2.4845  2.70526  1.80706
 6576.98  17.4743  1  2.48438  2.70539  1.80606
 6577.23  17.4736  1.0  2.48424  2.70538  1.805
 6577.48  17.4729  1  2.48422  2.70554  1.80403
 6577.73  17.4722  1.0  2.48415  2.70568  1.80286
 6577.98  17.4715  1  2.484  2.70572  1.80174
 6578.23  17.4709  1.0  2.48391  2.7058  1.80054
 6578.48  17.4702  1  2.48381  2.7059  1.79952
 6578.73  17.4695  1.0  2.48381  2.70605  1.79818
 6578.98  17.4688  1  2.48373  2.70619  1.79688
 6579.23  17.4681  1.0  2.48354  2.7062  1.79549
 6579.48  17.4674  1  2.48336  2.70618  1.79407
 6579.73  17.4668  1.0  2.4833  2.70624  1.79255
 6579.98  17.4661  1  2.48322  2.70637  1.79108
 6580.23  17.4654  1.0  2.48319  2.70653  1.78958
 6580.48  17.4647  1  2.48313  2.7067  1.788
 6580.73  17.464  1.0  2.48301  2.7067  1.78622
 6580.98  17.4633  1  2.48294  2.70675  1.78452
 6581.23  17.4626  1.0  2.48267  2.70669  1.7827
 6581.48  17.462  1  2.48191  2.70608  1.7806
 6581.73  17.4613  1.0  2.48061  2.70487  1.77794
 6581.98  17.4606  1  2.47872  2.70294  1.77498
 6582.23  17.4599  1.0  2.47704  2.70137  1.77225
 6582.48  17.4592  1  2.47594  2.70023  1.77015
 6582.73  17.4585  1.0  2.47626  2.7009  1.76921
 6582.98  17.4579  1  2.47758  2.70251  1.76897
 6583.23  17.4572  1.0  2.47925  2.70454  1.76914
 6583.48  17.4565  1  2.48043  2.706  1.76923
 6583.73  17.4558  1.0  2.4808  2.70651  1.76891
 6583.98  17.4551  1  2.48079  2.70671  1.76858
 6584.23  17.4544  1.0  2.48076  2.70692  1.76849
 6584.48  17.4537  1  2.4807  2.70713  1.76864
 6584.73  17.4531  1.0  2.48067  2.70724  1.76909
 6584.98  17.4524  1  2.48061  2.70733  1.76976
 6585.23  17.4517  1.0  2.48058  2.70749  1.77083
 6585.48  17.451  1  2.48041  2.70752  1.77196
 6585.73  17.4503  1.0  2.48035  2.70764  1.77361
 6585.98  17.4496  1  2.4803  2.70776  1.77545
 6586.23  17.449  1.0  2.48019  2.7078  1.77747
 6586.48  17.4483  1  2.48003  2.70793  1.77989
 6586.73  17.4476  1.0  2.47996  2.70802  1.7823
 6586.98  17.4469  1  2.47988  2.70806  1.78493
 6587.23  17.4462  1.0  2.48384  2.71267  1.79061
 6587.48  17.4455  1  2.4855  2.71463  1.79489
 6587.73  17.4449  1.0  2.48544  2.71475  1.79782
 6587.98  17.4442  1  2.48529  2.7148  1.80098
 6588.23  17.4435  1.0  2.48525  2.71488  1.80394
 6588.48  17.4428  1  2.4851  2.71493  1.80698
 6588.73  17.4421  1.0  2.48496  2.71504  1.80996
 6598.73  17.4148  1  2.48197  2.71934  1.89297
 6608.73  17.3877  1.0  2.4791  2.72377  1.87208
 6618.73  17.3606  1  2.47657  2.72845  1.84731
 6628.73  17.3335  1.0  2.4738  2.73284  1.8964
 6638.72  17.3066  1  2.47104  2.73724  1.90161
 6648.72  17.2798  1.0  2.46819  2.74155  1.93817
 6658.72  17.253  1  2.46538  2.74588  1.97846
 6668.72  17.2263  1.0  2.46246  2.74994  1.97507
 6678.72  17.1997  1  2.45953  2.75397  1.9717
 6688.72  17.1732  1.0  2.45656  2.75793  1.99239
 6698.72  17.1468  1  2.45358  2.76174  2.03624
 6708.72  17.1204  1.0  2.45052  2.76558  2.069
 6718.72  17.0942  1  2.44743  2.76925  2.07902
 6728.72  17.068  1.0  2.44435  2.77295  2.09167
 6738.72  17.0419  1  2.44123  2.77648  2.10556
 6748.72  17.0159  1.0  2.43819  2.78006  2.12988
 6758.72  16.9899  1  2.43503  2.78362  2.15402
 6768.71  16.9641  1.0  2.43199  2.78704  2.17241
 6778.71  16.9383  1  2.42904  2.79063  2.20139
 6788.71  16.9126  1.0  2.42618  2.79436  2.23362
 6798.71  16.887  1  2.42386  2.79861  2.25497
 6808.71  16.8614  1.0  2.24994  2.60374  2.1063
 6818.71  16.836  1  2.3241  2.69637  2.18974
 6828.71  16.8106  1.0  2.40302  2.79481  2.28528
 6838.71  16.7853  1  2.40516  2.80414  2.31388
 6848.71  16.76  1.0  2.4028  2.80803  2.33768
 6858.71  16.7349  1  2.39976  2.81128  2.36258
 6868.71  16.7098  1.0  2.39661  2.81424  2.38618
 6878.71  16.6848  1  2.39324  2.81687  2.40833
 6888.7  16.6599  1.0  2.38988  2.81952  2.42698
 6898.7  16.635  1  2.38638  2.82197  2.44559
 6908.7  16.6103  1.0  2.38297  2.82449  2.46292
 6918.7  16.5856  1  2.37924  2.82655  2.48205
 6928.7  16.5609  1.0  2.3756  2.82878  2.50219
 6938.7  16.5364  1  2.37197  2.83091  2.52079
 6948.7  16.5119  1.0  2.36822  2.83281  2.53919
 6958.7  16.4875  1  2.36465  2.83479  2.55997
 6968.7  16.4632  1.0  2.36084  2.83661  2.58188
 6978.7  16.4389  1  2.35712  2.83846  2.60339
 6988.7  16.4147  1.0  2.35333  2.84015  2.62324
 6998.69  16.3906  1  2.3496  2.84186  2.64151
 7008.69  16.3666  1.0  2.34578  2.84348  2.65929
 7018.69  16.3426  1  2.34194  2.845  2.67717
 7028.69  16.3187  1.0  2.33818  2.84655  2.69624
 7038.69  16.2949  1  2.33429  2.84794  2.71577
 7048.69  16.2711  1.0  2.33051  2.84939  2.73484
 7058.69  16.2474  1  2.32681  2.8509  2.75389
 7068.69  16.2238  1.0  2.30305  2.82772  2.74971
 7078.69  16.2003  1  2.31702  2.85094  2.79061
 7088.69  16.1768  1.0  2.31384  2.85292  2.81097
 7098.69  16.1534  1  2.30984  2.85393  2.82956
 7108.68  16.13  1.0  2.30582  2.85472  2.84809
 7118.68  16.1067  1  2.29874  2.85192  2.86273
 7128.68  16.0835  1.0  2.29042  2.84722  2.87506
 7138.68  16.0604  1  2.28659  2.8482  2.89301
 7148.68  16.0373  1.0  2.28259  2.8491  2.91106
 7158.68  16.0143  1  2.27839  2.84952  2.92935
 7168.68  15.9914  1.0  2.27412  2.84983  2.94769
 7178.68  15.9685  1  2.26989  2.85018  2.96581
 7188.68  15.9457  1.0  2.26555  2.85034  2.98383
 7198.68  15.923  1  2.26128  2.8506  3.00192
 7208.68  15.9003  1.0  2.2573  2.85104  3.02045
 7218.67  15.8777  1  2.25248  2.85048  3.03733
 7228.67  15.8552  1.0  2.24845  2.85084  3.05537
 7238.67  15.8327  1  2.22355  2.82465  3.04427
 7248.67  15.8103  1.0  2.23611  2.84606  3.08484
 7258.67  15.7879  1  2.23018  2.84394  3.09962
 7268.67  15.7656  1.0  2.21755  2.83305  3.10466
 7278.67  15.7434  1  2.22979  2.85418  3.1452
 7288.67  15.7213  1.0  2.22329  2.85111  3.15874
 7298.66  15.6992  1  2.21931  2.85133  3.17642
 7308.66  15.6771  1.0  2.21509  2.85107  3.19366
 7318.66  15.6552  1  2.21062  2.85056  3.21039
 7328.66  15.6333  1.0  2.20615  2.85001  3.22728
 7338.66  15.6114  1  2.20172  2.84934  3.24402
 7348.66  15.5896  1.0  2.19705  2.84847  3.26043
 7358.66  15.5679  1  2.1924  2.84754  3.27694
 7368.66  15.5463  1.0  2.1879  2.84677  3.2933
 7378.66  15.5247  1  2.18364  2.84634  3.30983
 7388.66  15.5031  1.0  2.17935  2.84571  3.32657
 7398.65  15.4816  1  2.17487  2.84481  3.34262
 7408.65  15.4602  1.0  2.17031  2.84377  3.35872
 7418.65  15.4389  1  2.16579  2.84274  3.37491
 7428.65  15.4176  1.0  2.16126  2.84174  3.39102
 7438.65  15.3963  1  2.15639  2.84013  3.4067
 7448.65  15.3752  1.0  2.15019  2.83689  3.42021
 7458.65  15.354  1  2.14573  2.83573  3.43599
 7468.65  15.333  1.0  2.14492  2.83945  3.45829
 7478.65  15.312  1  2.13995  2.83765  3.47353
 7488.65  15.291  1.0  2.1353  2.83624  3.48923
 7498.64  15.2701  1  2.13073  2.83483  3.50495
 7508.65  15.2493  1.0  2.12621  2.83354  3.52056
 7518.64  15.2285  1  2.12173  2.83209  3.53645
 7528.64  15.2078  1.0  2.1171  2.83052  3.55187
 7538.64  15.1872  1  2.11271  2.82923  3.56747
 7548.64  15.1666  1.0  2.10814  2.82779  3.58277
 7558.64  15.146  1  2.10345  2.82593  3.59796
 7568.64  15.1255  1.0  2.09885  2.82426  3.61324
 7578.63  15.1051  1  2.09425  2.82261  3.62846
 7588.63  15.0847  1.0  2.08984  2.82098  3.64386
 7598.63  15.0644  1  2.08556  2.81963  3.6596
 7608.63  15.0441  1.0  2.08001  2.81662  3.67305
 7618.63  15.0239  1  2.07557  2.81492  3.68819
 7628.63  15.0038  1.0  2.0709  2.813  3.70318
 7638.63  14.9837  1  2.06625  2.81099  3.71784
 7648.63  14.9636  1.0  2.06155  2.80894  3.73258
 7658.63  14.9436  1  2.06157  2.81308  3.75548
 7668.63  14.9237  1.0  2.05678  2.8109  3.76996
 7678.625  14.9038  1  2.05193  2.80848  3.78387
 7688.62  14.884  1.0  2.04705  2.80588  3.79765
 7698.62  14.8642  1  2.04149  2.80249  3.81019
 7708.62  14.8445  1.0  2.03734  2.80098  3.82551
 7718.62  14.8248  1  2.03378  2.80023  3.84151
 7728.62  14.8052  1.0  2.03037  2.79963  3.8578
 7738.62  14.7856  1  2.02523  2.7966  3.87098
 7748.62  14.7661  1.0  2.02045  2.79402  3.88474
 7758.62  14.7467  1  2.01575  2.7916  3.89842
 7768.62  14.7272  1.0  2.01101  2.78907  3.91214