File: MEX1_29702_processed.xdi
# XDI/1.0
# Mono.d_spacing: 3.13897
# Reference.Element: Ti
# ROI.start_bin: nan
# ROI.end_bin: nan
# Element.symbol: None
# Element.edge: None
# Processing.version: spec_processing_library v0.3.5
# Column.1: energy
# Column.2: bragg
# Column.3: count_time seconds
# Column.4: i0
# Column.5: i1
# Column.6: i2
# Describe.Column.1: energy - MEX1ES01ZEB01:CALC_ENERGY_EV
# Describe.Column.2: bragg - MEX1ES01ZEB01:BRAGG_WITH_OFFSET
# Describe.Column.3: count_time - MEX1ES01ZEB01:GATE_TIME_SET
# Describe.Column.4: i0 - MEX1ES01DAQ01:ch1:S:MeanValue_RBV
# Describe.Column.5: i1 - MEX1ES01DAQ01:ch2:S:MeanValue_RBV
# Describe.Column.6: i2 - MEX1ES01DAQ01:ch3:S:MeanValue_RBV
# Samples: [417, 417, 417, 417, 417, 417]
# ///
# Ti foil
#
# xdi from default mda2xdi preset for mex1.
#--------
#  energy   bragg   count_time   i0   i1   i2
 4765.86  24.4809  1  2.14068  1.71326  0.770392
 4775.86  24.4262  1.0  2.148  1.73505  0.782112
 4785.86  24.3719  1  2.15579  1.75793  0.797188
 4795.86  24.3178  1.0  2.16347  1.78079  0.812293
 4805.86  24.2639  1  2.17115  1.80386  0.82804
 4815.86  24.2103  1.0  2.17851  1.82668  0.843538
 4825.86  24.1569  1  2.18587  1.84975  0.859723
 4835.86  24.1038  1.0  2.19309  1.8728  0.876221
 4845.86  24.0509  1  2.2003  1.896  0.893236
 4855.86  23.9983  1.0  2.20748  1.91937  0.910921
 4865.86  23.9458  1  2.21448  1.94286  0.929264
 4875.86  23.8937  1.0  2.22145  1.96646  0.948615
 4885.86  23.8417  1  2.22829  1.9903  0.969
 4895.86  23.79  1.0  2.23519  2.01441  0.990568
 4905.86  23.7386  1  2.24206  2.03875  1.01321
 4915.85  23.6873  1.0  2.24882  2.06327  1.03671
 4925.85  23.6363  1  2.25563  2.08807  1.06099
 4935.85  23.5855  1.0  2.26229  2.11284  1.08557
 4945.85  23.5349  1  2.26884  2.13777  1.10931
 4946.1  23.5337  1.0  2.26902  2.13843  1.10988
 4946.35  23.5324  1  2.26918  2.13897  1.11043
 4946.6  23.5312  1.0  2.26928  2.13963  1.11098
 4946.85  23.5299  1  2.26937  2.14011  1.11141
 4947.1  23.5287  1.0  2.26944  2.14066  1.11189
 4947.35  23.5274  1  2.26959  2.14138  1.11255
 4947.6  23.5261  1.0  2.26976  2.14198  1.11314
 4947.85  23.5249  1  2.26986  2.14253  1.11366
 4948.1  23.5236  1.0  2.27006  2.14314  1.11419
 4948.35  23.5223  1  2.27018  2.1438  1.11464
 4948.6  23.5211  1.0  2.2703  2.1443  1.11515
 4948.85  23.5198  1  2.27043  2.14492  1.11575
 4949.1  23.5186  1.0  2.27059  2.14559  1.11614
 4949.35  23.5173  1  2.27066  2.14609  1.11674
 4949.6  23.516  1.0  2.27073  2.14664  1.11714
 4949.85  23.5148  1  2.27088  2.14725  1.1176
 4950.1  23.5135  1.0  2.27095  2.14779  1.11802
 4950.35  23.5123  1  2.2711  2.14839  1.11861
 4950.6  23.511  1.0  2.2713  2.1491  1.11914
 4950.85  23.5098  1  2.27139  2.14958  1.11948
 4951.1  23.5085  1.0  2.27147  2.15015  1.11999
 4951.35  23.5072  1  2.27157  2.15069  1.12034
 4951.6  23.506  1.0  2.27175  2.1514  1.12084
 4951.85  23.5047  1  2.27192  2.15193  1.12123
 4952.1  23.5035  1.0  2.27203  2.15248  1.12167
 4952.35  23.5022  1  2.27337  2.15425  1.12264
 4952.6  23.5009  1.0  2.27766  2.15886  1.12527
 4952.85  23.4997  1  2.27781  2.15963  1.12609
 4953.1  23.4984  1.0  2.27796  2.16023  1.12701
 4953.35  23.4972  1  2.27813  2.16099  1.12753
 4953.6  23.4959  1.0  2.27824  2.16157  1.12809
 4953.85  23.4947  1  2.27836  2.16208  1.12818
 4954.1  23.4934  1.0  2.27844  2.16251  1.128
 4954.35  23.4922  1  2.2785  2.16305  1.12813
 4954.6  23.4909  1.0  2.27867  2.16361  1.12852
 4954.85  23.4896  1  2.27882  2.16437  1.12899
 4955.1  23.4884  1.0  2.27932  2.16581  1.13182
 4955.35  23.4871  1  2.27909  2.16536  1.12894
 4955.6  23.4859  1.0  2.27917  2.16597  1.12928
 4955.85  23.4846  1  2.27922  2.16647  1.12947
 4956.1  23.4834  1.0  2.27944  2.16715  1.1297
 4956.35  23.4821  1  2.2795  2.1678  1.13013
 4956.6  23.4808  1.0  2.27977  2.16862  1.13086
 4956.85  23.4796  1  2.27989  2.16932  1.13127
 4957.1  23.4783  1.0  2.28002  2.16991  1.13142
 4957.35  23.4771  1  2.28014  2.1705  1.13135
 4957.6  23.4758  1.0  2.28025  2.17092  1.13087
 4957.85  23.4746  1  2.28035  2.17143  1.13054
 4958.1  23.4733  1.0  2.28041  2.17195  1.13023
 4958.35  23.4721  1  2.28052  2.17257  1.13011
 4958.6  23.4708  1.0  2.28058  2.17305  1.12989
 4958.85  23.4696  1  2.28069  2.17363  1.12936
 4959.1  23.4683  1.0  2.28085  2.17425  1.1289
 4959.35  23.467  1  2.28101  2.17484  1.12846
 4959.6  23.4658  1.0  2.28117  2.17542  1.12779
 4959.85  23.4645  1  2.28128  2.17604  1.12691
 4960.1  23.4633  1.0  2.28137  2.17664  1.12597
 4960.35  23.462  1  2.28148  2.17715  1.12477
 4960.6  23.4608  1.0  2.2816  2.17774  1.12322
 4960.85  23.4595  1  2.28177  2.17839  1.12161
 4961.1  23.4583  1.0  2.28182  2.17886  1.11946
 4961.35  23.457  1  2.28195  2.17947  1.117
 4961.6  23.4558  1.0  2.28202  2.18007  1.11377
 4961.85  23.4545  1  2.28216  2.18076  1.11009
 4962.1  23.4533  1.0  2.28239  2.18134  1.10503
 4962.35  23.452  1  2.28245  2.1819  1.09884
 4962.6  23.4508  1.0  2.28261  2.18252  1.0908
 4962.85  23.4495  1  2.28266  2.18304  1.07973
 4963.1  23.4483  1.0  2.28276  2.18363  1.06441
 4963.35  23.447  1  2.28288  2.18426  1.04189
 4963.6  23.4458  1.0  2.28306  2.18481  1.00764
 4963.85  23.4445  1  2.28317  2.18542  0.954451
 4964.1  23.4432  1.0  2.28326  2.18594  0.874605
 4964.35  23.442  1  2.2834  2.1866  0.771182
 4964.6  23.4407  1.0  2.28345  2.18714  0.664817
 4964.85  23.4395  1  2.2836  2.18771  0.587153
 4965.1  23.4382  1.0  2.28369  2.18832  0.553958
 4965.35  23.437  1  2.28386  2.18894  0.560815
 4965.6  23.4357  1.0  2.28399  2.1895  0.594349
 4965.85  23.4345  1  2.28409  2.19008  0.639476
 4966.1  23.4332  1.0  2.28411  2.19062  0.681997
 4966.35  23.432  1  2.28423  2.19118  0.712986
 4966.6  23.4307  1.0  2.28426  2.19169  0.729986
 4966.85  23.4295  1  2.28434  2.1923  0.734538
 4967.1  23.4282  1.0  2.28451  2.19279  0.729231
 4967.35  23.427  1  2.28461  2.1935  0.717188
 4967.6  23.4257  1.0  2.28465  2.19395  0.700199
 4967.85  23.4245  1  2.28475  2.19452  0.680811
 4968.1  23.4232  1.0  2.28488  2.19511  0.661174
 4968.35  23.422  1  2.28501  2.19569  0.643122
 4968.6  23.4207  1.0  2.2852  2.19637  0.627512
 4968.85  23.4195  1  2.28534  2.19698  0.614726
 4969.1  23.4183  1.0  2.28546  2.19753  0.604656
 4969.35  23.417  1  2.28556  2.1981  0.597097
 4969.6  23.4158  1.0  2.2857  2.19868  0.591796
 4969.85  23.4145  1  2.28587  2.19938  0.587967
 4970.1  23.4133  1.0  2.28598  2.19994  0.584581
 4970.35  23.412  1  2.28611  2.20057  0.580419
 4970.6  23.4108  1.0  2.28623  2.20111  0.574186
 4970.85  23.4095  1  2.28633  2.20172  0.565108
 4971.1  23.4083  1.0  2.28647  2.20226  0.552887
 4971.35  23.407  1  2.28664  2.20305  0.538741
 4971.6  23.4058  1.0  2.28682  2.2039  0.522787
 4971.85  23.4045  1  2.28693  2.20449  0.505725
 4972.1  23.4033  1.0  2.28708  2.2052  0.488878
 4972.35  23.402  1  2.2871  2.20569  0.472315
 4972.6  23.4008  1.0  2.28715  2.20603  0.456062
 4972.85  23.3995  1  2.28726  2.20645  0.441138
 4973.1  23.3983  1.0  2.28731  2.20703  0.427462
 4973.35  23.397  1  2.28738  2.2076  0.414725
 4973.6  23.3958  1.0  2.28751  2.20815  0.402975
 4973.85  23.3946  1  2.2876  2.20877  0.391785
 4974.1  23.3933  1.0  2.28769  2.20926  0.380972
 4974.35  23.3921  1  2.2877  2.20974  0.370544
 4974.6  23.3908  1.0  2.28781  2.21036  0.360497
 4974.85  23.3896  1  2.28793  2.21085  0.35061
 4975.1  23.3883  1.0  2.28807  2.2115  0.341021
 4975.35  23.3871  1  2.28822  2.21213  0.331787
 4975.6  23.3858  1.0  2.28832  2.21271  0.322972
 4975.85  23.3846  1  2.28842  2.21332  0.314671
 4976.1  23.3834  1.0  2.28842  2.21378  0.307004
 4976.35  23.3821  1  2.28855  2.2144  0.299926
 4976.6  23.3809  1.0  2.28861  2.21491  0.293521
 4976.85  23.3796  1  2.28871  2.21548  0.287342
 4977.1  23.3784  1.0  2.28881  2.21605  0.281793
 4977.35  23.3771  1  2.28889  2.21661  0.276445
 4977.6  23.3759  1.0  2.28897  2.21718  0.271408
 4977.85  23.3746  1  2.28914  2.21772  0.266709
 4978.1  23.3734  1.0  2.28923  2.21837  0.262256
 4978.35  23.3722  1  2.28932  2.21892  0.258159
 4978.6  23.3709  1.0  2.28933  2.21945  0.254354
 4978.85  23.3697  1  2.28939  2.21998  0.250813
 4979.1  23.3684  1.0  2.28947  2.22048  0.247665
 4979.35  23.3672  1  2.28958  2.22112  0.24472
 4979.6  23.3659  1.0  2.28973  2.22162  0.24214
 4979.85  23.3647  1  2.28974  2.22218  0.239877
 4980.1  23.3635  1.0  2.28989  2.22272  0.238026
 4980.35  23.3622  1  2.28991  2.2233  0.236461
 4980.6  23.361  1.0  2.29008  2.22394  0.235253
 4980.85  23.3597  1  2.29017  2.22448  0.234351
 4981.1  23.3585  1.0  2.29022  2.22501  0.233614
 4981.35  23.3572  1  2.29037  2.22564  0.233075
 4981.6  23.356  1.0  2.29045  2.22618  0.232678
 4981.85  23.3548  1  2.29051  2.22677  0.232437
 4982.1  23.3535  1.0  2.29054  2.22723  0.232336
 4982.35  23.3523  1  2.2906  2.22778  0.232346
 4982.6  23.351  1.0  2.29069  2.22835  0.232556
 4982.85  23.3498  1  2.29082  2.22897  0.232892
 4983.1  23.3486  1.0  2.291  2.22963  0.233512
 4983.35  23.3473  1  2.29113  2.23023  0.234338
 4983.6  23.3461  1.0  2.29122  2.23072  0.23541
 4983.85  23.3448  1  2.29124  2.23117  0.236676
 4984.1  23.3436  1.0  2.2913  2.23178  0.23819
 4984.35  23.3424  1  2.29143  2.23238  0.239745
 4984.6  23.3411  1.0  2.29151  2.233  0.24148
 4984.85  23.3399  1  2.29162  2.23358  0.243136
 4985.1  23.3386  1.0  2.29169  2.2341  0.244865
 4985.35  23.3374  1  2.29176  2.23454  0.246417
 4985.6  23.3362  1.0  2.2919  2.23529  0.247906
 4985.85  23.3349  1  2.2921  2.23588  0.24916
 4986.1  23.3337  1.0  2.2924  2.23665  0.250332
 4986.35  23.3324  1  2.29779  2.24241  0.251797
 4986.6  23.3312  1.0  2.29794  2.24302  0.252639
 4986.85  23.33  1  2.29803  2.24366  0.253264
 4987.1  23.3287  1.0  2.29818  2.24424  0.253785
 4987.35  23.3275  1  2.29828  2.24484  0.254186
 4987.6  23.3262  1.0  2.29841  2.2455  0.254556
 4987.85  23.325  1  2.2985  2.24601  0.25486
 4988.1  23.3238  1.0  2.29858  2.24659  0.255231
 4988.35  23.3225  1  2.2988  2.24714  0.255598
 4988.6  23.3213  1.0  2.29888  2.24772  0.25602
 4988.85  23.3201  1  2.29891  2.24823  0.256464
 4989.1  23.3188  1.0  2.29905  2.24886  0.256868
 4989.35  23.3176  1  2.29913  2.24945  0.25742
 4989.6  23.3163  1.0  2.29929  2.2501  0.257887
 4989.85  23.3151  1  2.29943  2.25066  0.258356
 4990.1  23.3139  1.0  2.2995  2.25124  0.258764
 4990.35  23.3126  1  2.29959  2.25178  0.259277
 4990.6  23.3114  1.0  2.2997  2.25242  0.259755
 4990.85  23.3102  1  2.29989  2.25307  0.260195
 4991.1  23.3089  1.0  2.29999  2.25367  0.260594
 4991.35  23.3077  1  2.30013  2.25426  0.260982
 4991.6  23.3064  1.0  2.30024  2.2548  0.261308
 4991.85  23.3052  1  2.30032  2.25541  0.261592
 4992.1  23.304  1.0  2.30046  2.25599  0.261763
 4992.35  23.3027  1  2.30056  2.25656  0.261865
 4992.6  23.3015  1.0  2.30069  2.2572  0.261838
 4992.85  23.3003  1  2.30083  2.25786  0.26171
 4993.1  23.299  1.0  2.30096  2.25844  0.261392
 4993.35  23.2978  1  2.30104  2.25898  0.261024
 4993.6  23.2966  1.0  2.30116  2.25952  0.260392
 4993.85  23.2953  1  2.30124  2.26007  0.259574
 4994.1  23.2941  1.0  2.30139  2.2607  0.258669
 4994.35  23.2929  1  2.30154  2.26134  0.257561
 4994.6  23.2916  1.0  2.30171  2.26199  0.256334
 4994.85  23.2904  1  2.3018  2.26259  0.254887
 4995.1  23.2892  1.0  2.30191  2.26318  0.253273
 4995.35  23.2879  1  2.30207  2.26371  0.251603
 4995.6  23.2867  1.0  2.30217  2.26432  0.249739
 4995.85  23.2855  1  2.30223  2.26485  0.247815
 4996.1  23.2842  1.0  2.30232  2.26551  0.245875
 4996.35  23.283  1  2.30245  2.26608  0.243851
 4996.6  23.2818  1.0  2.30265  2.26667  0.241806
 4996.85  23.2805  1  2.30281  2.26735  0.239763
 4997.1  23.2793  1.0  2.3029  2.26793  0.237933
 4997.35  23.2781  1  2.30306  2.26856  0.236096
 4997.6  23.2768  1.0  2.30317  2.26915  0.234462
 4997.85  23.2756  1  2.30323  2.2697  0.233005
 4998.1  23.2744  1.0  2.30336  2.27032  0.231613
 4998.35  23.2731  1  2.30348  2.27088  0.230417
 4998.6  23.2719  1.0  2.30358  2.27151  0.229444
 4998.85  23.2707  1  2.30378  2.27208  0.228518
 4999.1  23.2694  1.0  2.30384  2.27266  0.22779
 4999.35  23.2682  1  2.3039  2.27319  0.227192
 4999.6  23.267  1.0  2.30406  2.27375  0.226746
 4999.85  23.2657  1  2.3042  2.27447  0.226461
 5000.1  23.2645  1.0  2.30422  2.27494  0.226229
 5000.35  23.2633  1  2.30427  2.27548  0.226118
 5000.6  23.262  1.0  2.30445  2.27614  0.226039
 5000.85  23.2608  1  2.30461  2.27679  0.225874
 5001.1  23.2596  1.0  2.30475  2.27744  0.225832
 5001.35  23.2583  1  2.30484  2.27802  0.225731
 5001.6  23.2571  1.0  2.30491  2.27859  0.225631
 5001.85  23.2559  1  2.30501  2.27913  0.225469
 5002.1  23.2546  1.0  2.30505  2.27969  0.225336
 5002.35  23.2534  1  2.30523  2.2803  0.225231
 5002.6  23.2522  1.0  2.30539  2.28092  0.225145
 5002.85  23.251  1  2.30545  2.28149  0.225096
 5003.1  23.2497  1.0  2.30555  2.28203  0.225215
 5003.35  23.2485  1  2.3057  2.28263  0.225422
 5003.6  23.2473  1.0  2.30588  2.28331  0.225719
 5003.85  23.246  1  2.30595  2.28389  0.226162
 5004.1  23.2448  1.0  2.30602  2.28448  0.226698
 5004.35  23.2436  1  2.30611  2.285  0.227483
 5004.6  23.2423  1.0  2.30619  2.2856  0.228435
 5004.85  23.2411  1  2.30636  2.28616  0.229497
 5005.1  23.2399  1.0  2.30653  2.28682  0.230875
 5005.35  23.2387  1  2.30664  2.28752  0.232314
 5005.6  23.2374  1.0  2.3068  2.28806  0.234002
 5005.85  23.2362  1  2.30687  2.28869  0.235752
 5006.1  23.235  1.0  2.30691  2.28916  0.237603
 5006.35  23.2337  1  2.30703  2.28972  0.239593
 5006.6  23.2325  1.0  2.30716  2.29036  0.241693
 5006.85  23.2313  1  2.30731  2.29103  0.243831
 5007.1  23.2301  1.0  2.30747  2.29169  0.245988
 5007.35  23.2288  1  2.30756  2.29223  0.248144
 5007.6  23.2276  1.0  2.3076  2.29278  0.250252
 5007.85  23.2264  1  2.30777  2.29341  0.252396
 5008.1  23.2252  1.0  2.30785  2.29392  0.254385
 5008.35  23.2239  1  2.30795  2.29452  0.256353
 5008.6  23.2227  1.0  2.30807  2.29511  0.258193
 5008.85  23.2215  1  2.30816  2.29563  0.26001
 5009.1  23.2202  1.0  2.30831  2.29625  0.261651
 5009.35  23.219  1  2.30838  2.29689  0.26312
 5009.6  23.2178  1.0  2.30851  2.29744  0.264489
 5009.85  23.2166  1  2.30864  2.29811  0.265841
 5010.1  23.2153  1.0  2.30877  2.29869  0.266996
 5010.35  23.2141  1  2.30881  2.29924  0.268081
 5010.6  23.2129  1.0  2.30893  2.29983  0.269115
 5010.85  23.2117  1  2.30901  2.30047  0.270047
 5011.1  23.2104  1.0  2.30908  2.30099  0.270935
 5011.35  23.2092  1  2.30919  2.30156  0.271798
 5011.6  23.208  1.0  2.30939  2.30218  0.272633
 5011.85  23.2068  1  2.30947  2.30281  0.273477
 5012.1  23.2055  1.0  2.30958  2.30339  0.274345
 5012.35  23.2043  1  2.30972  2.30401  0.275207
 5012.6  23.2031  1.0  2.30983  2.30462  0.276137
 5012.85  23.2019  1  2.30989  2.30517  0.277032
 5013.1  23.2006  1.0  2.31002  2.3058  0.277989
 5013.35  23.1994  1  2.3102  2.30637  0.278985
 5013.6  23.1982  1.0  2.31025  2.30701  0.279894
 5013.85  23.197  1  2.31029  2.30749  0.28089
 5014.1  23.1957  1.0  2.31042  2.30813  0.281935
 5014.35  23.1945  1  2.3105  2.30874  0.28295
 5014.6  23.1933  1.0  2.31062  2.30928  0.283924
 5014.85  23.1921  1  2.31078  2.30996  0.284964
 5015.1  23.1908  1.0  2.3109  2.31059  0.285941
 5015.35  23.1896  1  2.31108  2.31119  0.286932
 5015.6  23.1884  1.0  2.31112  2.31174  0.287935
 5015.85  23.1872  1  2.31121  2.31226  0.288867
 5025.85  23.1384  1.0  2.31712  2.33753  0.30147
 5035.85  23.0897  1  2.32296  2.36275  0.26164
 5045.85  23.0413  1.0  2.32847  2.38767  0.265772
 5055.85  22.9932  1  2.33404  2.41287  0.315558
 5065.84  22.9452  1.0  2.3396  2.43806  0.338269
 5075.84  22.8974  1  2.34506  2.46319  0.339991
 5085.84  22.8498  1.0  2.35032  2.48841  0.303301
 5095.84  22.8025  1  2.35556  2.51363  0.310971
 5105.84  22.7553  1.0  2.3607  2.53891  0.364645
 5115.84  22.7083  1  2.36595  2.56442  0.377831
 5125.84  22.6616  1.0  2.37105  2.5899  0.393672
 5135.84  22.615  1  2.37602  2.6154  0.398203
 5145.84  22.5686  1.0  2.38107  2.64095  0.387491
 5155.84  22.5225  1  2.39178  2.6731  0.39769
 5165.84  22.4765  1.0  2.39661  2.69877  0.42497
 5175.84  22.4307  1  2.40123  2.72417  0.45616
 5185.84  22.3851  1.0  2.40591  2.74978  0.475754
 5195.84  22.3397  1  2.41054  2.77545  0.484449
 5205.84  22.2945  1.0  2.41502  2.80092  0.489086
 5215.83  22.2494  1  2.41946  2.82638  0.495459
 5225.83  22.2046  1.0  2.42393  2.85199  0.508634
 5235.83  22.1599  1  2.42812  2.87728  0.527397
 5245.83  22.1155  1.0  2.43225  2.90252  0.550518
 5255.83  22.0712  1  2.43651  2.92808  0.573341
 5265.83  22.0271  1.0  2.44113  2.95408  0.590348
 5275.83  21.9831  1  2.44618  2.98067  0.601005
 5285.83  21.9394  1.0  2.44515  2.9998  0.610274
 5295.83  21.8958  1  2.44938  3.02559  0.625642
 5305.83  21.8524  1.0  2.45311  3.05058  0.640868
 5315.83  21.8092  1  2.4567  3.07558  0.658091
 5325.83  21.7662  1.0  2.46028  3.10049  0.6776
 5335.83  21.7233  1  2.46382  3.12545  0.698329
 5345.82  21.6806  1.0  2.46722  3.15032  0.720335
 5355.82  21.6381  1  2.47058  3.17519  0.738948
 5365.82  21.5957  1.0  2.47369  3.1996  0.753656
 5375.82  21.5536  1  2.47693  3.22442  0.768456
 5385.82  21.5116  1.0  2.48032  3.24937  0.78654
 5395.82  21.4697  1  2.48396  3.27467  0.805225
 5405.82  21.428  1.0  2.48593  3.29785  0.82466
 5415.82  21.3865  1  2.48549  3.31792  0.844511
 5425.82  21.3452  1.0  2.48897  3.343  0.866677
 5435.82  21.304  1  2.49152  3.367  0.88859
 5445.82  21.263  1.0  2.49388  3.3907  0.909788
 5455.82  21.2221  1  2.4963  3.41455  0.930351
 5465.82  21.1814  1.0  2.49872  3.43846  0.950659
 5475.82  21.1409  1  2.50115  3.4624  0.971084
 5485.82  21.1005  1.0  2.50384  3.48654  0.991802
 5495.81  21.0603  1  2.50648  3.51079  1.01376
 5505.81  21.0202  1.0  2.50912  3.53494  1.03552
 5515.81  20.9803  1  2.51131  3.55861  1.05803
 5525.81  20.9406  1.0  2.51306  3.58143  1.08069
 5535.81  20.901  1  2.51486  3.60448  1.10456
 5545.81  20.8615  1.0  2.51651  3.62744  1.12826
 5555.81  20.8222  1  2.51815  3.65007  1.15155
 5565.81  20.7831  1.0  2.51956  3.67251  1.17473
 5575.81  20.7441  1  2.52105  3.69505  1.19845
 5585.81  20.7052  1.0  2.52252  3.71756  1.22212
 5595.81  20.6665  1  2.52418  3.74027  1.24593
 5605.81  20.628  1.0  2.52546  3.76242  1.26999
 5615.81  20.5896  1  2.52666  3.78441  1.29477
 5625.81  20.5513  1.0  2.52746  3.80582  1.32011
 5635.81  20.5132  1  2.52902  3.82843  1.34641
 5645.8  20.4753  1.0  2.53014  3.85013  1.37265
 5655.8  20.4375  1  2.53113  3.8719  1.39939
 5665.8  20.3998  1.0  2.53188  3.89317  1.42595
 5675.8  20.3623  1  2.53261  3.91428  1.45259
 5685.8  20.3249  1.0  2.53329  3.93531  1.47976
 5695.8  20.2876  1  2.53399  3.95634  1.50692
 5705.8  20.2505  1.0  2.53473  3.97759  1.53493
 5715.8  20.2135  1  2.53546  3.99861  1.56269
 5725.8  20.1767  1.0  2.5362  4.01971  1.59036
 5735.8  20.14  1  2.53681  4.04061  1.61944
 5745.8  20.1034  1.0  2.53751  4.06146  1.6484
 5755.8  20.067  1  2.53784  4.08181  1.67773
 5765.8  20.0307  1.0  2.538  4.10186  1.70733
 5775.79  19.9945  1  2.53791  4.12131  1.73692
 5785.79  19.9585  1.0  2.53779  4.14085  1.7671
 5795.79  19.9226  1  2.53753  4.15988  1.79727
 5805.79  19.8869  1.0  2.53716  4.17902  1.82748
 5815.79  19.8512  1  2.53681  4.19792  1.85798
 5825.79  19.8157  1.0  2.53606  4.21617  1.8884
 5835.79  19.7804  1  2.53534  4.23433  1.91914
 5845.79  19.7451  1.0  2.53448  4.25237  1.9501
 5855.79  19.71  1  2.53328  4.26959  1.98091
 5865.79  19.675  1.0  2.53149  4.28586  2.01176
 5875.79  19.6402  1  2.52894  4.30064  2.04231
 5885.79  19.6054  1.0  2.5252  4.31333  2.07197
 5895.79  19.5708  1  2.51799  4.32014  2.09907
 5905.78  19.5363  1.0  2.48224  4.27732  2.10191
 5915.78  19.502  1  2.52898  4.37713  2.17569
 5925.78  19.4677  1.0  2.41988  4.20593  2.11389
 5935.78  19.4336  1  2.56402  4.47625  2.27507
 5945.78  19.3996  1.0  2.52553  4.42775  2.27557
 5955.78  19.3658  1  2.57019  4.52517  2.35115
 5965.78  19.332  1.0  2.55187  4.51191  2.36993
 5975.78  19.2984  1  2.54602  4.52033  2.40024
 5985.78  19.2649  1.0  2.54233  4.5326  2.43258
 5995.78  19.2315  1  2.53934  4.54589  2.46582
 6005.78  19.1982  1.0  2.53622  4.5589  2.49911
 6015.78  19.165  1  2.53424  4.57389  2.53398
 6025.78  19.132  1.0  2.53258  4.58931  2.5692
 6035.77  19.0991  1  2.53092  4.60476  2.60493
 6045.77  19.0663  1.0  2.52933  4.62022  2.64082
 6055.77  19.0336  1  2.52741  4.63502  2.67682
 6065.77  19.001  1.0  2.52534  4.64956  2.71263
 6075.77  18.9685  1  2.52355  4.6645  2.74894
 6085.77  18.9362  1.0  2.52196  4.67958  2.78586
 6095.77  18.9039  1  2.52026  4.69438  2.8227
 6105.77  18.8718  1.0  2.51871  4.70954  2.86017
 6115.77  18.8398  1  2.51712  4.72451  2.89778
 6125.77  18.8079  1.0  2.51542  4.73912  2.93552
 6135.76  18.7761  1  2.51348  4.75321  2.97292
 6145.76  18.7444  1.0  2.51134  4.76691  3.01061
 6155.76  18.7128  1  2.50894  4.78018  3.04824
 6165.76  18.6813  1.0  2.50676  4.79354  3.08562
 6175.76  18.65  1  2.50472  4.80718  3.1244
 6185.76  18.6187  1.0  2.50283  4.82099  3.16323
 6195.76  18.5876  1  2.50082  4.83467  3.20192