File: MEX1_29704_processed.xdi
# XDI/1.0
# Mono.d_spacing: 3.13897
# Reference.Element: In
# ROI.start_bin: nan
# ROI.end_bin: nan
# Element.symbol: None
# Element.edge: None
# Processing.version: spec_processing_library v0.3.5
# Column.1: energy
# Column.2: bragg
# Column.3: count_time seconds
# Column.4: i0
# Column.5: i1
# Column.6: i2
# Describe.Column.1: energy - MEX1ES01ZEB01:CALC_ENERGY_EV
# Describe.Column.2: bragg - MEX1ES01ZEB01:BRAGG_WITH_OFFSET
# Describe.Column.3: count_time - MEX1ES01ZEB01:GATE_TIME_SET
# Describe.Column.4: i0 - MEX1ES01DAQ01:ch1:S:MeanValue_RBV
# Describe.Column.5: i1 - MEX1ES01DAQ01:ch2:S:MeanValue_RBV
# Describe.Column.6: i2 - MEX1ES01DAQ01:ch3:S:MeanValue_RBV
# Samples: [417, 417, 417, 417, 417, 417]
# ///
# In foil
#
# xdi from default mda2xdi preset for mex1.
#--------
#  energy   bragg   count_time   i0   i1   i2
 3529.93  34.0198  1  1.6423  0.579937  3.03836
 3539.93  33.9106  1.0  1.6746  0.579231  2.98454
 3549.93  33.8021  1  1.70555  0.583214  2.96175
 3559.93  33.6945  1.0  1.73011  0.584941  2.92392
 3569.93  33.5875  1  1.75027  0.586868  2.88922
 3579.93  33.4813  1.0  1.76882  0.589842  2.86143
 3589.93  33.3758  1  1.78583  0.592715  2.83158
 3599.93  33.271  1.0  1.80168  0.595098  2.79901
 3609.93  33.1669  1  1.78921  0.595473  2.77172
 3619.93  33.0636  1.0  1.76914  0.59475  2.74362
 3629.93  32.9609  1  1.80545  0.600811  2.71455
 3639.93  32.8589  1.0  1.83025  0.605873  2.68519
 3649.93  32.7575  1  1.84252  0.609572  2.65607
 3659.93  32.6569  1.0  1.88362  0.617879  2.63063
 3669.93  32.5569  1  1.895  0.622468  2.60489
 3679.93  32.4575  1.0  1.91126  0.628259  2.58207
 3689.92  32.3588  1  1.93589  0.640034  2.59058
 3699.92  32.2608  1.0  1.9729  0.649394  2.56726
 3709.92  32.1633  1  1.99361  0.657519  2.54985
 3710.17  32.1609  1.0  1.99406  0.657719  2.5494
 3710.42  32.1585  1  1.99453  0.658023  2.54968
 3710.67  32.156  1.0  1.99497  0.658325  2.54944
 3710.92  32.1536  1  1.99537  0.658383  2.5488
 3711.17  32.1512  1.0  1.9958  0.6587  2.54825
 3711.42  32.1488  1  1.99624  0.658827  2.54849
 3711.67  32.1463  1.0  1.9966  0.659082  2.54799
 3711.92  32.1439  1  2.00025  0.660158  2.55106
 3712.17  32.1415  1.0  2.00208  0.660817  2.55134
 3712.42  32.1391  1  2.00153  0.656821  2.52184
 3712.67  32.1366  1.0  2.00285  0.661034  2.55022
 3712.92  32.1342  1  2.00322  0.661391  2.5509
 3713.17  32.1318  1.0  2.00375  0.661724  2.55029
 3713.42  32.1294  1  2.00425  0.661934  2.55038
 3713.67  32.127  1.0  2.00466  0.662336  2.5509
 3713.92  32.1245  1  2.00527  0.663395  2.55485
 3714.17  32.1221  1.0  2.00571  0.663301  2.55163
 3714.42  32.1197  1  2.00608  0.663302  2.54865
 3714.67  32.1173  1.0  2.00632  0.662699  2.54461
 3714.92  32.1148  1  2.00572  0.658711  2.51588
 3715.17  32.1124  1.0  2.00695  0.66253  2.5414
 3715.42  32.11  1  2.00698  0.660957  2.52774
 3715.67  32.1076  1.0  2.00822  0.664398  2.54867
 3715.92  32.1052  1  2.00857  0.664321  2.54547
 3716.17  32.1028  1.0  2.00882  0.664103  2.54283
 3716.42  32.1003  1  2.00901  0.663515  2.53901
 3716.67  32.0979  1.0  2.0095  0.663831  2.54034
 3716.92  32.0955  1  2.00999  0.664272  2.54168
 3717.17  32.0931  1.0  2.01048  0.664638  2.54155
 3717.42  32.0907  1  2.01086  0.664865  2.54166
 3717.67  32.0883  1.0  2.01132  0.664772  2.53961
 3717.92  32.0858  1  2.01099  0.661931  2.51739
 3718.17  32.0834  1.0  2.01214  0.665304  2.53972
 3718.42  32.081  1  2.01259  0.665669  2.54006
 3718.67  32.0786  1.0  2.0131  0.665959  2.54018
 3718.92  32.0762  1  2.01357  0.666123  2.5395
 3719.17  32.0738  1.0  2.01398  0.666361  2.54019
 3719.42  32.0714  1  2.01445  0.666533  2.53878
 3719.67  32.0689  1.0  2.015  0.666823  2.53937
 3719.92  32.0665  1  2.01538  0.66701  2.53873
 3720.17  32.0641  1.0  2.0159  0.667275  2.53823
 3720.42  32.0617  1  2.01644  0.667519  2.53764
 3720.67  32.0593  1.0  2.01694  0.667759  2.5377
 3720.92  32.0569  1  2.01739  0.668012  2.53729
 3721.17  32.0545  1.0  2.01788  0.668168  2.53637
 3721.42  32.0521  1  2.01837  0.668396  2.53629
 3721.67  32.0497  1.0  2.0189  0.668583  2.53564
 3721.92  32.0472  1  2.01947  0.668917  2.53599
 3722.17  32.0448  1.0  2.01994  0.669131  2.53539
 3722.42  32.0424  1  2.02039  0.669334  2.53514
 3722.67  32.04  1.0  2.02089  0.669658  2.53501
 3722.92  32.0376  1  2.02143  0.669761  2.53428
 3723.17  32.0352  1.0  2.022  0.670117  2.53431
 3723.42  32.0328  1  2.02249  0.670313  2.53377
 3723.67  32.0304  1.0  2.02293  0.670497  2.53313
 3723.92  32.028  1  2.02343  0.670774  2.5329
 3724.17  32.0256  1.0  2.02404  0.670904  2.5328
 3724.42  32.0232  1  2.0245  0.671188  2.53238
 3724.67  32.0208  1.0  2.02495  0.671496  2.53206
 3724.92  32.0184  1  2.02546  0.671676  2.53174
 3725.17  32.016  1.0  2.02599  0.671946  2.53141
 3725.42  32.0136  1  2.02661  0.672248  2.53208
 3725.67  32.0112  1.0  2.02723  0.672855  2.53368
 3725.92  32.0087  1  2.02764  0.672777  2.52984
 3726.17  32.0063  1.0  2.02805  0.67271  2.52679
 3726.42  32.0039  1  2.02846  0.672437  2.52362
 3726.67  32.0015  1.0  2.02893  0.672611  2.52365
 3726.92  31.9991  1  2.02958  0.673084  2.5251
 3727.17  31.9967  1.0  2.03013  0.673403  2.52555
 3727.42  31.9943  1  2.03063  0.673599  2.5252
 3727.67  31.9919  1.0  2.03115  0.673891  2.52469
 3727.92  31.9895  1  2.03171  0.674109  2.52473
 3728.17  31.9871  1.0  2.03225  0.674409  2.52425
 3728.42  31.9847  1  2.03281  0.674661  2.52391
 3728.67  31.9823  1.0  2.03341  0.674881  2.52288
 3728.92  31.9799  1  2.034  0.675086  2.52315
 3729.17  31.9775  1.0  2.03453  0.675313  2.52267
 3729.42  31.9751  1  2.03505  0.67554  2.52174
 3729.67  31.9727  1.0  2.03568  0.675825  2.52131
 3729.92  31.9703  1  2.0363  0.676112  2.52093
 3730.17  31.9679  1.0  2.03687  0.676277  2.52022
 3730.42  31.9656  1  2.03749  0.676524  2.51905
 3730.67  31.9632  1.0  2.03811  0.676825  2.51852
 3730.92  31.9608  1  2.03869  0.677071  2.51861
 3731.17  31.9584  1.0  2.03924  0.677224  2.51725
 3731.42  31.956  1  2.03987  0.677524  2.51719
 3731.67  31.9536  1.0  2.04054  0.677693  2.51624
 3731.92  31.9512  1  2.04113  0.677933  2.51562
 3732.17  31.9488  1.0  2.04174  0.678206  2.51457
 3732.42  31.9464  1  2.04232  0.678206  2.51222
 3732.67  31.944  1.0  2.04249  0.676143  2.49502
 3732.92  31.9416  1  2.04386  0.679448  2.51614
 3733.17  31.9392  1.0  2.04449  0.679476  2.5141
 3733.42  31.9368  1  2.04511  0.679749  2.51361
 3733.67  31.9344  1.0  2.0457  0.679833  2.51318
 3733.92  31.932  1  2.04633  0.680048  2.51176
 3734.17  31.9297  1.0  2.04697  0.680286  2.51057
 3734.42  31.9273  1  2.04763  0.680418  2.50894
 3734.67  31.9249  1.0  2.04775  0.677883  2.48912
 3734.92  31.9225  1  2.04895  0.680657  2.50584
 3735.17  31.9201  1.0  2.04996  0.682272  2.51594
 3735.42  31.9177  1  2.05059  0.682261  2.5131
 3735.67  31.9153  1.0  2.05133  0.682353  2.5117
 3735.92  31.9129  1  2.05199  0.682535  2.51063
 3736.17  31.9105  1.0  2.05262  0.682783  2.50934
 3736.42  31.9082  1  2.05326  0.682962  2.5084
 3736.67  31.9058  1.0  2.05399  0.683176  2.50778
 3736.92  31.9034  1  2.05453  0.682802  2.50266
 3737.17  31.901  1.0  2.05505  0.682636  2.49867
 3737.42  31.8986  1  2.05609  0.68435  2.50906
 3737.67  31.8962  1.0  2.05679  0.684523  2.50722
 3737.92  31.8938  1  2.05752  0.684697  2.50725
 3738.17  31.8915  1.0  2.05825  0.685033  2.50625
 3738.42  31.8891  1  2.059  0.685297  2.50579
 3738.67  31.8867  1.0  2.05965  0.685528  2.50489
 3738.92  31.8843  1  2.06034  0.685817  2.50476
 3739.17  31.8819  1.0  2.06116  0.686131  2.50373
 3739.42  31.8795  1  2.06183  0.686405  2.50358
 3739.67  31.8772  1.0  2.06252  0.686645  2.50281
 3739.92  31.8748  1  2.06316  0.686946  2.50287
 3740.17  31.8724  1.0  2.06389  0.687161  2.50168
 3740.42  31.87  1  2.0646  0.687471  2.5017
 3740.67  31.8676  1.0  2.06533  0.687719  2.5013
 3740.92  31.8653  1  2.06603  0.688052  2.50035
 3741.17  31.8629  1.0  2.06674  0.688314  2.50037
 3741.42  31.8605  1  2.0675  0.68855  2.50006
 3741.67  31.8581  1.0  2.06812  0.688893  2.4994
 3741.92  31.8557  1  2.06885  0.689099  2.49887
 3742.17  31.8534  1.0  2.06951  0.689357  2.49845
 3742.42  31.851  1  2.07031  0.689676  2.49823
 3742.67  31.8486  1.0  2.07094  0.689981  2.49709
 3742.92  31.8462  1  2.07162  0.690175  2.49704
 3743.17  31.8439  1.0  2.07221  0.690572  2.49654
 3743.42  31.8415  1  2.07303  0.690827  2.49641
 3743.67  31.8391  1.0  2.07375  0.691082  2.49609
 3743.92  31.8367  1  2.07444  0.691263  2.49563
 3744.17  31.8343  1.0  2.07512  0.691628  2.4949
 3744.42  31.832  1  2.07576  0.691852  2.49452
 3744.67  31.8296  1.0  2.07639  0.692235  2.49396
 3744.92  31.8272  1  2.077  0.692383  2.49385
 3745.17  31.8249  1.0  2.07775  0.692756  2.49343
 3745.42  31.8225  1  2.07844  0.692979  2.49289
 3745.67  31.8201  1.0  2.07907  0.693281  2.49217
 3745.92  31.8177  1  2.07977  0.693521  2.492
 3746.17  31.8154  1.0  2.08496  0.695072  2.49528
 3746.42  31.813  1  2.08558  0.6954  2.49481
 3746.67  31.8106  1.0  2.08626  0.695622  2.49408
 3746.92  31.8082  1  2.08687  0.695952  2.49419
 3747.17  31.8059  1.0  2.08749  0.696174  2.49392
 3747.42  31.8035  1  2.08807  0.696435  2.49342
 3747.67  31.8011  1.0  2.08864  0.6967  2.49311
 3747.92  31.7988  1  2.08928  0.697006  2.49261
 3748.17  31.7964  1.0  2.0899  0.697294  2.49262
 3748.42  31.794  1  2.09051  0.697518  2.49176
 3748.67  31.7917  1.0  2.09109  0.697826  2.49147
 3748.92  31.7893  1  2.09172  0.697996  2.491
 3749.17  31.7869  1.0  2.09225  0.698282  2.49037
 3749.42  31.7846  1  2.09279  0.698533  2.49023
 3749.67  31.7822  1.0  2.09344  0.698793  2.49002
 3749.92  31.7798  1  2.09395  0.69902  2.48938
 3750.17  31.7775  1.0  2.09452  0.699272  2.48913
 3750.42  31.7751  1  2.0951  0.699594  2.48837
 3750.67  31.7727  1.0  2.09568  0.699906  2.48774
 3750.92  31.7704  1  2.09618  0.700054  2.48749
 3751.17  31.768  1.0  2.09676  0.700353  2.48774
 3751.42  31.7656  1  2.09735  0.700627  2.48707
 3751.67  31.7633  1.0  2.09788  0.700793  2.48614
 3751.92  31.7609  1  2.09838  0.701024  2.48508
 3752.17  31.7585  1.0  2.0989  0.701177  2.48471
 3752.42  31.7562  1  2.09942  0.701267  2.48281
 3752.67  31.7538  1.0  2.09951  0.699378  2.46773
 3752.92  31.7515  1  2.10062  0.70211  2.48444
 3753.17  31.7491  1.0  2.10118  0.702534  2.48561
 3753.42  31.7467  1  2.1018  0.702879  2.48475
 3753.67  31.7444  1.0  2.10228  0.703071  2.48435
 3753.92  31.742  1  2.1028  0.703279  2.4834
 3754.17  31.7396  1.0  2.10328  0.703462  2.48329
 3754.42  31.7373  1  2.10389  0.703789  2.48208
 3754.67  31.7349  1.0  2.10443  0.704008  2.48227
 3754.92  31.7326  1  2.1049  0.704192  2.48138
 3755.17  31.7302  1.0  2.1054  0.704511  2.4811
 3755.42  31.7279  1  2.10591  0.704707  2.48062
 3755.67  31.7255  1.0  2.10644  0.704946  2.4798
 3755.92  31.7231  1  2.10699  0.70516  2.47912
 3756.17  31.7208  1.0  2.1075  0.705472  2.47888
 3756.42  31.7184  1  2.10794  0.705705  2.47777
 3756.67  31.7161  1.0  2.10844  0.705838  2.47694
 3756.92  31.7137  1  2.10887  0.705594  2.473
 3757.17  31.7114  1.0  2.1091  0.704914  2.46566
 3757.42  31.709  1  2.11004  0.706925  2.47784
 3757.67  31.7066  1.0  2.11028  0.706146  2.47031
 3757.92  31.7043  1  2.11068  0.705977  2.46661
 3758.17  31.7019  1.0  2.11165  0.70802  2.47875
 3758.42  31.6996  1  2.112  0.70805  2.47737
 3758.67  31.6972  1.0  2.11246  0.70827  2.47667
 3758.92  31.6949  1  2.11296  0.708426  2.4757
 3759.17  31.6925  1.0  2.11342  0.708639  2.47454
 3759.42  31.6902  1  2.11386  0.708931  2.47471
 3759.67  31.6878  1.0  2.11437  0.709138  2.47472
 3759.92  31.6855  1  2.1147  0.70936  2.4734
 3760.17  31.6831  1.0  2.11521  0.709649  2.47301
 3760.42  31.6808  1  2.11563  0.709818  2.47215
 3760.67  31.6784  1.0  2.11613  0.71019  2.47237
 3760.92  31.6761  1  2.11658  0.710301  2.47157
 3761.17  31.6737  1.0  2.11704  0.710542  2.47105
 3761.42  31.6714  1  2.11751  0.710839  2.47034
 3761.67  31.669  1.0  2.11788  0.710896  2.4695
 3761.92  31.6667  1  2.11832  0.711077  2.4676
 3762.17  31.6643  1.0  2.11845  0.709823  2.45658
 3762.42  31.662  1  2.11904  0.710618  2.46012
 3762.67  31.6596  1.0  2.11982  0.712409  2.46981
 3762.92  31.6573  1  2.1202  0.712512  2.4691
 3763.17  31.6549  1.0  2.12063  0.712764  2.46856
 3763.42  31.6526  1  2.12112  0.712986  2.4677
 3763.67  31.6502  1.0  2.12166  0.713184  2.46736
 3763.92  31.6479  1  2.12205  0.713525  2.46672
 3764.17  31.6455  1.0  2.12241  0.713691  2.46647
 3764.42  31.6432  1  2.12295  0.71392  2.46611
 3764.67  31.6409  1.0  2.12341  0.714186  2.46587
 3764.92  31.6385  1  2.12392  0.71444  2.46539
 3765.17  31.6362  1.0  2.12436  0.714722  2.46473
 3765.42  31.6338  1  2.12478  0.714958  2.46426
 3765.67  31.6315  1.0  2.12522  0.715146  2.46381
 3765.92  31.6291  1  2.12572  0.715346  2.46362
 3766.17  31.6268  1.0  2.12624  0.715734  2.46322
 3766.42  31.6245  1  2.12668  0.716013  2.46263
 3766.67  31.6221  1.0  2.12719  0.716213  2.46203
 3766.92  31.6198  1  2.12762  0.716526  2.46203
 3767.17  31.6174  1.0  2.12815  0.716818  2.46158
 3767.42  31.6151  1  2.12876  0.717044  2.46144
 3767.67  31.6128  1.0  2.12928  0.717296  2.46092
 3767.92  31.6104  1  2.12974  0.71755  2.4605
 3768.17  31.6081  1.0  2.13021  0.717751  2.4599
 3768.42  31.6057  1  2.13066  0.718058  2.45914
 3768.67  31.6034  1.0  2.13116  0.718362  2.4588
 3768.92  31.6011  1  2.13172  0.718567  2.45844
 3769.17  31.5987  1.0  2.13223  0.718769  2.45788
 3769.42  31.5964  1  2.13273  0.719116  2.45758
 3769.67  31.594  1.0  2.13323  0.719361  2.45656
 3769.92  31.5917  1  2.1337  0.719588  2.45625
 3770.17  31.5894  1.0  2.13419  0.719856  2.45588
 3770.42  31.587  1  2.13478  0.72004  2.45523
 3770.67  31.5847  1.0  2.1352  0.720348  2.45482
 3770.92  31.5824  1  2.1358  0.720686  2.45446
 3771.17  31.58  1.0  2.1364  0.720989  2.45407
 3771.42  31.5777  1  2.1369  0.721189  2.45324
 3771.67  31.5754  1.0  2.13744  0.721459  2.45316
 3771.92  31.573  1  2.13798  0.721723  2.45202
 3772.17  31.5707  1.0  2.13852  0.721977  2.45181
 3772.42  31.5684  1  2.13914  0.722223  2.4514
 3772.67  31.566  1.0  2.13967  0.722475  2.45062
 3772.92  31.5637  1  2.14019  0.722759  2.45015
 3773.17  31.5614  1.0  2.1407  0.72299  2.44972
 3773.42  31.559  1  2.14129  0.723368  2.44989
 3773.67  31.5567  1.0  2.14191  0.723533  2.44932
 3773.92  31.5544  1  2.14245  0.723843  2.44831
 3774.17  31.552  1.0  2.14303  0.724107  2.44797
 3774.42  31.5497  1  2.14361  0.724339  2.44725
 3774.67  31.5474  1.0  2.14415  0.724569  2.44644
 3774.92  31.545  1  2.1448  0.724957  2.44555
 3775.17  31.5427  1.0  2.14534  0.72526  2.44559
 3775.42  31.5404  1  2.146  0.725513  2.4452
 3775.67  31.5381  1.0  2.14659  0.725819  2.44428
 3775.92  31.5357  1  2.14716  0.726017  2.44426
 3776.17  31.5334  1.0  2.14773  0.726225  2.4425
 3776.42  31.5311  1  2.14828  0.726496  2.44211
 3776.67  31.5288  1.0  2.14892  0.726726  2.44095
 3776.92  31.5264  1  2.14941  0.726403  2.43665
 3777.17  31.5241  1.0  2.15009  0.726771  2.43696
 3777.42  31.5218  1  2.15085  0.727922  2.44195
 3777.67  31.5194  1.0  2.15138  0.727907  2.43933
 3777.92  31.5171  1  2.15184  0.727268  2.4324
 3778.17  31.5148  1.0  2.15209  0.725783  2.41948
 3778.42  31.5125  1  2.15355  0.729656  2.44411
 3778.67  31.5102  1.0  2.15407  0.729569  2.44171
 3778.92  31.5078  1  2.15715  0.73017  2.43992
 3779.17  31.5055  1.0  2.15918  0.728437  2.42201
 3779.42  31.5032  1  2.16055  0.731989  2.44452
 3779.67  31.5009  1.0  2.16122  0.732203  2.44363
 3779.92  31.4985  1  2.16183  0.732425  2.44251
 3789.92  31.406  1.0  2.19033  0.744844  2.42208
 3799.92  31.3139  1  2.21785  0.757694  2.40268
 3809.92  31.2225  1.0  2.24356  0.770148  2.37991
 3819.92  31.1316  1  2.26696  0.783668  2.36502
 3829.92  31.0413  1.0  2.28752  0.796109  2.34393
 3839.92  30.9516  1  2.30794  0.809271  2.32538
 3849.92  30.8624  1.0  2.33092  0.823819  2.31049
 3859.92  30.7737  1  2.35441  0.838614  2.29208
 3869.92  30.6856  1.0  2.37932  0.853805  2.27183
 3879.92  30.598  1  2.40569  0.870143  2.25301
 3889.91  30.5109  1.0  2.43236  0.886307  2.22909
 3899.91  30.4244  1  2.45901  0.904023  2.21329
 3909.91  30.3384  1.0  2.48317  0.919553  2.18238
 3919.91  30.2529  1  2.50567  0.936251  2.1578
 3929.91  30.1679  1.0  2.528  0.953788  2.13849
 3939.91  30.0834  1  2.54936  0.969423  2.09921
 3949.91  29.9994  1.0  2.57274  0.98829  2.0756
 3959.91  29.9159  1  2.59618  1.0059  2.04044
 3969.91  29.8329  1.0  2.61879  1.0231  1.99949
 3979.91  29.7504  1  2.64181  1.04313  1.97801
 3989.91  29.6684  1.0  2.66426  1.06278  1.95077
 3999.91  29.5868  1  2.68847  1.08246  1.91477
 4009.91  29.5057  1.0  2.7144  1.10245  1.87238
 4019.91  29.4251  1  2.72459  1.12054  1.85069
 4029.91  29.3449  1.0  2.75176  1.14367  1.82139
 4039.91  29.2652  1  2.77394  1.16486  1.78666
 4049.91  29.186  1.0  2.79182  1.18456  1.74975
 4059.91  29.1072  1  2.81792  1.20859  1.71738
 4069.91  29.0288  1.0  2.84238  1.23211  1.68129
 4079.91  28.9509  1  2.86366  1.2548  1.64362
 4089.9  28.8735  1.0  2.8831  1.27764  1.60943
 4099.9  28.7964  1  2.90294  1.3005  1.56939
 4109.9  28.7199  1.0  2.92278  1.32385  1.52977
 4119.9  28.6437  1  2.94206  1.34742  1.48806
 4129.9  28.5679  1.0  2.96291  1.374  1.46338
 4139.9  28.4926  1  2.98372  1.4003  1.43224
 4149.9  28.4177  1.0  3.00408  1.42659  1.39651
 4159.9  28.3432  1  3.02524  1.4539  1.36427
 4169.9  28.2691  1.0  3.04751  1.48384  1.34541
 4179.9  28.1954  1  3.06806  1.51206  1.31304
 4189.9  28.1222  1.0  3.08758  1.54003  1.27849
 4199.9  28.0493  1  3.1058  1.56831  1.24711
 4209.9  27.9768  1.0  3.11811  1.59537  1.2252
 4219.9  27.9047  1  2.6935  1.41212  1.17174
 4229.9  27.833  1.0  3.18194  1.66834  1.16819
 4239.9  27.7617  1  3.19632  1.69836  1.12907
 4249.89  27.6907  1.0  3.212  1.72736  1.09718
 4259.89  27.6202  1  3.2298  1.75899  1.06849
 4269.89  27.55  1.0  3.2468  1.78996  1.03554
 4279.89  27.4802  1  3.26683  1.82463  1.01547
 4289.89  27.4107  1.0  3.2875  1.8602  0.996179
 4299.89  27.3417  1  3.30578  1.89415  0.970406
 4309.89  27.2729  1.0  3.32377  1.92851  0.943008
 4319.89  27.2046  1  3.34271  1.96494  0.926395
 4329.89  27.1366  1.0  3.3619  2.00196  0.909362
 4339.89  27.069  1  3.37975  2.03607  0.868706
 4349.89  27.0017  1.0  3.39735  2.0742  0.862063
 4359.89  26.9347  1  3.41483  2.11151  0.842832
 4369.89  26.8681  1.0  3.43274  2.14955  0.82507
 4379.89  26.8019  1  3.44967  2.18716  0.803565
 4389.89  26.736  1.0  3.46688  2.22601  0.788075
 4399.89  26.6704  1  3.48271  2.26392  0.766954
 4409.89  26.6051  1.0  3.49831  2.30204  0.745678
 4419.89  26.5402  1  3.51542  2.34241  0.733619
 4429.88  26.4757  1.0  3.53226  2.38345  0.722682
 4439.88  26.4114  1  3.54859  2.42431  0.710593
 4449.88  26.3475  1.0  3.56739  2.46823  0.707578
 4459.88  26.2839  1  3.58456  2.5109  0.698906
 4469.88  26.2206  1.0  3.60111  2.55334  0.687235
 4479.88  26.1576  1  3.61929  2.59832  0.684972
 4489.88  26.095  1.0  3.63516  2.64142  0.675844
 4499.88  26.0326  1  3.65041  2.68462  0.669422
 4509.88  25.9706  1.0  3.66497  2.72783  0.661804
 4519.88  25.9089  1  3.68073  2.77257  0.658831
 4529.88  25.8474  1.0  3.69671  2.81824  0.658716
 4539.88  25.7863  1  3.71199  2.86363  0.656602
 4549.88  25.7255  1.0  3.72735  2.90939  0.654212
 4559.88  25.665  1  3.74248  2.95547  0.653453
 4569.88  25.6048  1.0  3.75612  3.00057  0.648629
 4579.88  25.5448  1  3.77083  3.04742  0.651471
 4589.88  25.4852  1.0  3.78342  3.09263  0.650266
 4599.87  25.4258  1  3.79752  3.13988  0.653203
 4609.87  25.3668  1.0  3.81049  3.1863  0.655066
 4619.87  25.308  1  3.8243  3.23394  0.65843
 4629.87  25.2495  1.0  3.83616  3.2807  0.666101
 4639.87  25.1913  1  3.8373  3.31794  0.665615
 4649.87  25.1333  1.0  3.86185  3.37642  0.676802
 4659.87  25.0756  1  3.87674  3.42688  0.685544
 4669.87  25.0182  1.0  3.89104  3.47727  0.695651
 4679.87  24.9611  1  3.906  3.5288  0.708686
 4689.87  24.9043  1.0  3.91938  3.57917  0.719901
 4699.87  24.8477  1  3.93195  3.6292  0.732169
 4709.87  24.7914  1.0  3.94254  3.67746  0.742896
 4719.87  24.7353  1  3.95523  3.72838  0.756928
 4729.87  24.6795  1.0  3.96756  3.77925  0.77143
 4739.87  24.624  1  3.97826  3.8288  0.78579
 4749.87  24.5687  1.0  3.98918  3.87889  0.800404
 4759.86  24.5137  1  4.00203  3.93133  0.818182
 4769.86  24.459  1.0  4.0135  3.98272  0.836682
 4779.86  24.4044  1  4.03399  4.04374  0.858673
 4789.86  24.3502  1.0  4.04567  4.096  0.879792
 4799.86  24.2962  1  4.05673  4.14821  0.902295
 4809.86  24.2424  1.0  4.06765  4.20079  0.926105
 4819.86  24.1889  1  4.07902  4.2541  0.951688
 4829.86  24.1356  1.0  4.09043  4.30762  0.978969
 4839.86  24.0826  1  4.10102  4.36091  1.00736
 4849.86  24.0298  1.0  4.11075  4.41323  1.0366
 4859.86  23.9773  1  4.11841  4.46393  1.06618
 4869.86  23.9249  1.0  4.12931  4.51849  1.09865
 4879.86  23.8729  1  4.1412  4.57407  1.13249
 4889.86  23.821  1.0  4.15103  4.6281  1.16685
 4899.86  23.7694  1  4.15938  4.6806  1.20212
 4909.86  23.718  1.0  4.16887  4.73468  1.23946
 4919.86  23.6669  1  4.1781  4.78846  1.27752
 4929.85  23.616  1.0  4.18656  4.8419  1.31694
 4939.85  23.5653  1  4.19457  4.89496  1.35731
 4949.85  23.5148  1.0  4.20311  4.94888  1.39888
 4959.85  23.4645  1  4.21036  5.00127  1.44149