File: MEX1_29688_processed.xdi
# XDI/1.0
# Mono.d_spacing: 3.13897
# Reference.Element: Ta
# ROI.start_bin: nan
# ROI.end_bin: nan
# Element.symbol: None
# Element.edge: None
# Processing.version: spec_processing_library v0.3.5
# Column.1: energy
# Column.2: bragg
# Column.3: count_time seconds
# Column.4: i0
# Column.5: i1
# Column.6: i2
# Describe.Column.1: energy - MEX1ES01ZEB01:CALC_ENERGY_EV
# Describe.Column.2: bragg - MEX1ES01ZEB01:BRAGG_WITH_OFFSET
# Describe.Column.3: count_time - MEX1ES01ZEB01:GATE_TIME_SET
# Describe.Column.4: i0 - MEX1ES01DAQ01:ch1:S:MeanValue_RBV
# Describe.Column.5: i1 - MEX1ES01DAQ01:ch2:S:MeanValue_RBV
# Describe.Column.6: i2 - MEX1ES01DAQ01:ch3:S:MeanValue_RBV
# Samples: [417, 417, 417, 417, 417, 417]
# ///
# Ta foil
#
# xdi from default mda2xdi preset for mex1.
#--------
#  energy   bragg   count_time   i0   i1   i2
 9680.38  11.7717  1.0  2.70905  2.23896  3.08588
 9690.4  11.7594  1  2.70288  2.23509  3.08416
 9700.4  11.7471  1.0  2.69662  2.23134  3.08245
 9710.4  11.7348  1  2.68084  2.2195  3.06959
 9720.4  11.7226  1.0  2.68499  2.22416  3.07971
 9730.4  11.7103  1  2.67835  2.21997  3.07733
 9740.4  11.6981  1.0  2.67276  2.21659  3.0761
 9750.39  11.686  1  2.66677  2.21278  3.07437
 9760.4  11.6738  1.0  2.66058  2.20899  3.07248
 9770.4  11.6617  1  2.65427  2.20502  3.07027
 9780.39  11.6496  1.0  2.64495  2.19842  3.0644
 9790.39  11.6376  1  2.64307  2.19812  3.06715
 9800.39  11.6255  1.0  2.63847  2.19549  3.06661
 9810.38  11.6135  1  2.63208  2.19146  3.06386
 9820.39  11.6015  1.0  2.62616  2.18765  3.06121
 9830.39  11.5896  1  2.6063  2.17232  3.04182
 9840.38  11.5776  1.0  2.61331  2.17935  3.05259
 9850.38  11.5657  1  2.6078  2.17598  3.04648
 9860.38  11.5538  1.0  2.60205  2.1723  3.03199
 9860.62  11.5535  1  2.60183  2.17218  3.03158
 9860.87  11.5532  1.0  2.60171  2.17204  3.03073
 9861.12  11.553  1  2.60139  2.17191  3.03004
 9861.37  11.5527  1.0  2.60113  2.17175  3.02923
 9861.62  11.5524  1  2.60107  2.17164  3.02854
 9861.87  11.5521  1.0  2.60091  2.17158  3.02783
 9862.12  11.5518  1  2.60077  2.17146  3.02723
 9862.37  11.5515  1.0  2.60052  2.17128  3.02641
 9862.62  11.5512  1  2.6003  2.17114  3.02539
 9862.87  11.5509  1.0  2.60002  2.17097  3.02452
 9863.12  11.5506  1  2.59992  2.17092  3.02373
 9863.37  11.5503  1.0  2.59977  2.17081  3.02275
 9863.62  11.55  1  2.5996  2.17068  3.02177
 9863.87  11.5497  1.0  2.5993  2.1705  3.02075
 9864.12  11.5494  1  2.59897  2.17026  3.01963
 9864.37  11.5491  1.0  2.59901  2.17023  3.01871
 9864.62  11.5488  1  2.59878  2.17012  3.01766
 9864.87  11.5485  1.0  2.5987  2.17003  3.0165
 9865.12  11.5482  1  2.59847  2.16985  3.01506
 9865.37  11.5479  1.0  2.59812  2.16967  3.01382
 9865.62  11.5476  1  2.59804  2.16957  3.01255
 9865.87  11.5473  1.0  2.59795  2.1695  3.01124
 9866.12  11.547  1  2.59772  2.16938  3.00991
 9866.37  11.5467  1.0  2.59746  2.16922  3.00819
 9866.62  11.5464  1  2.59727  2.169  3.00658
 9866.87  11.5461  1.0  2.59724  2.169  3.00503
 9867.12  11.5458  1  2.59693  2.16885  3.00339
 9867.37  11.5455  1.0  2.59674  2.16869  3.00144
 9867.62  11.5452  1  2.59662  2.16868  2.99975
 9867.87  11.5449  1.0  2.59635  2.16846  2.99749
 9868.12  11.5446  1  2.59621  2.16829  2.99547
 9868.37  11.5443  1.0  2.59601  2.1682  2.9933
 9868.62  11.5441  1  2.59591  2.16813  2.99098
 9868.87  11.5438  1.0  2.59575  2.16798  2.98852
 9869.12  11.5435  1  2.59554  2.16784  2.98581
 9869.37  11.5432  1.0  2.59528  2.16767  2.98308
 9869.62  11.5429  1  2.59505  2.16751  2.97995
 9869.87  11.5426  1.0  2.59487  2.16744  2.97684
 9870.12  11.5423  1  2.59471  2.16724  2.9735
 9870.37  11.542  1.0  2.59456  2.16722  2.97005
 9870.62  11.5417  1  2.59436  2.16707  2.96614
 9870.87  11.5414  1.0  2.59409  2.16691  2.96203
 9871.12  11.5411  1  2.59387  2.16671  2.95759
 9871.37  11.5408  1.0  2.59366  2.16657  2.95284
 9871.62  11.5405  1  2.59357  2.16653  2.94785
 9871.87  11.5402  1.0  2.59334  2.16633  2.94229
 9872.12  11.5399  1  2.5932  2.16627  2.93639
 9872.37  11.5396  1.0  2.59306  2.16619  2.93
 9872.62  11.5393  1  2.59278  2.16598  2.92295
 9872.87  11.539  1.0  2.59269  2.16596  2.91527
 9873.12  11.5387  1  2.59249  2.16583  2.90703
 9873.37  11.5384  1.0  2.59237  2.16572  2.89788
 9873.62  11.5381  1  2.59205  2.16546  2.88771
 9873.87  11.5378  1.0  2.59182  2.16533  2.8766
 9874.12  11.5375  1  2.59159  2.16515  2.86472
 9874.37  11.5372  1.0  2.59141  2.16501  2.85149
 9874.62  11.5369  1  2.59122  2.16495  2.83703
 9874.87  11.5366  1.0  2.59103  2.16483  2.82092
 9875.12  11.5364  1  2.59092  2.16466  2.80325
 9875.37  11.5361  1.0  2.59062  2.16456  2.78365
 9875.62  11.5358  1  2.59053  2.16454  2.76204
 9875.87  11.5355  1.0  2.59044  2.16439  2.73836
 9876.12  11.5352  1  2.59021  2.16425  2.71243
 9876.37  11.5349  1.0  2.59  2.16412  2.68433
 9876.62  11.5346  1  2.59598  2.16908  2.66003
 9876.87  11.5343  1.0  2.59564  2.16891  2.62778
 9877.12  11.534  1  2.59544  2.16872  2.59314
 9877.37  11.5337  1.0  2.59528  2.1686  2.55684
 9877.62  11.5334  1  2.59504  2.16853  2.51896
 9877.87  11.5331  1.0  2.59493  2.1684  2.47984
 9878.12  11.5328  1  2.5948  2.16833  2.4396
 9878.37  11.5325  1.0  2.59457  2.16817  2.399
 9878.62  11.5322  1  2.59443  2.16805  2.35763
 9878.87  11.5319  1.0  2.59417  2.16786  2.31612
 9879.12  11.5316  1  2.594  2.16774  2.27532
 9879.37  11.5313  1.0  2.59381  2.16765  2.23569
 9879.62  11.531  1  2.59367  2.16759  2.19775
 9879.87  11.5307  1.0  2.59351  2.16742  2.16212
 9880.12  11.5304  1  2.5933  2.16731  2.13008
 9880.37  11.5301  1.0  2.59314  2.1672  2.10221
 9880.62  11.5298  1  2.59292  2.16704  2.07898
 9880.87  11.5295  1.0  2.59262  2.16688  2.06109
 9881.12  11.5292  1  2.59247  2.16685  2.04863
 9881.37  11.529  1.0  2.59228  2.16657  2.04162
 9881.62  11.5287  1  2.59217  2.16643  2.04025
 9881.87  11.5284  1.0  2.59197  2.16634  2.04411
 9882.12  11.5281  1  2.59169  2.16615  2.05274
 9882.37  11.5278  1.0  2.59151  2.16606  2.06562
 9882.62  11.5275  1  2.5913  2.16592  2.082
 9882.87  11.5272  1.0  2.59106  2.16575  2.10101
 9883.12  11.5269  1  2.59102  2.1657  2.12243
 9883.37  11.5266  1.0  2.59071  2.1655  2.1448
 9883.62  11.5263  1  2.59055  2.16534  2.16804
 9883.87  11.526  1.0  2.5903  2.16524  2.19144
 9884.12  11.5257  1  2.59015  2.16513  2.21447
 9884.37  11.5254  1.0  2.59001  2.16506  2.23712
 9884.62  11.5251  1  2.58971  2.16481  2.25876
 9884.87  11.5248  1.0  2.58961  2.16475  2.27933
 9885.12  11.5245  1  2.58931  2.16459  2.29879
 9885.37  11.5242  1.0  2.58909  2.1645  2.31686
 9885.62  11.5239  1  2.58912  2.1644  2.33388
 9885.87  11.5236  1.0  2.58898  2.16426  2.34967
 9886.12  11.5233  1  2.58855  2.16408  2.3641
 9886.37  11.523  1.0  2.58848  2.16403  2.3775
 9886.62  11.5227  1  2.58827  2.16386  2.38956
 9886.87  11.5225  1.0  2.58802  2.16368  2.40063
 9887.12  11.5222  1  2.58796  2.16371  2.41082
 9887.37  11.5219  1.0  2.58777  2.1634  2.41963
 9887.62  11.5216  1  2.5876  2.16346  2.42803
 9887.87  11.5213  1.0  2.58745  2.16333  2.43548
 9888.12  11.521  1  2.58703  2.16301  2.44217
 9888.37  11.5207  1.0  2.58706  2.16308  2.44861
 9888.62  11.5204  1  2.58667  2.16273  2.45405
 9888.87  11.5201  1.0  2.58662  2.16278  2.45951
 9889.12  11.5198  1  2.58638  2.16262  2.46443
 9889.37  11.5195  1.0  2.58611  2.16237  2.46889
 9889.62  11.5192  1  2.58609  2.16245  2.47342
 9889.87  11.5189  1.0  2.58567  2.16213  2.4774
 9890.12  11.5186  1  2.58568  2.16209  2.48162
 9890.37  11.5183  1.0  2.58551  2.16199  2.48567
 9890.62  11.518  1  2.5852  2.16176  2.48938
 9890.87  11.5177  1.0  2.58508  2.16173  2.4934
 9891.12  11.5174  1  2.58463  2.16141  2.49691
 9891.37  11.5171  1.0  2.5847  2.16145  2.50094
 9891.62  11.5168  1  2.58446  2.16132  2.50487
 9891.87  11.5165  1.0  2.5843  2.16109  2.50881
 9892.12  11.5163  1  2.58422  2.16109  2.51293
 9892.37  11.516  1.0  2.58402  2.16094  2.51691
 9892.62  11.5157  1  2.58358  2.16061  2.5206
 9892.87  11.5154  1.0  2.58353  2.16064  2.52486
 9893.12  11.5151  1  2.58334  2.1605  2.5288
 9893.37  11.5148  1.0  2.58325  2.16041  2.53285
 9893.62  11.5145  1  2.58309  2.16038  2.53662
 9893.87  11.5142  1.0  2.58258  2.15995  2.5402
 9894.12  11.5139  1  2.58271  2.16003  2.54402
 9894.37  11.5136  1.0  2.58245  2.15989  2.54762
 9894.62  11.5133  1  2.58228  2.15979  2.55117
 9894.87  11.513  1.0  2.58211  2.15971  2.55466
 9895.12  11.5127  1  2.58193  2.1595  2.55787
 9895.36  11.5124  1.0  2.58178  2.15944  2.56095
 9895.62  11.5121  1  2.58155  2.1593  2.56376
 9895.87  11.5118  1.0  2.58135  2.15915  2.56661
 9896.12  11.5115  1  2.58113  2.15897  2.56915
 9896.36  11.5112  1.0  2.58087  2.15883  2.57151
 9896.62  11.5109  1  2.58078  2.15866  2.57383
 9896.87  11.5107  1.0  2.58062  2.15867  2.57613
 9897.12  11.5104  1  2.58047  2.15849  2.57799
 9897.36  11.5101  1.0  2.58013  2.15834  2.57996
 9897.61  11.5098  1  2.57994  2.15818  2.58164
 9897.87  11.5095  1.0  2.57975  2.15804  2.58338
 9898.11  11.5092  1  2.57952  2.15786  2.58503
 9898.37  11.5089  1.0  2.57936  2.15785  2.58678
 9898.62  11.5086  1  2.57926  2.15772  2.58855
 9898.86  11.5083  1.0  2.57912  2.15762  2.59024
 9899.12  11.508  1  2.57885  2.15736  2.59192
 9899.37  11.5077  1.0  2.57862  2.15725  2.59359
 9899.61  11.5074  1  2.57848  2.15715  2.59516
 9899.87  11.5071  1.0  2.57833  2.15706  2.59681
 9900.12  11.5068  1  2.5782  2.15699  2.59842
 9900.36  11.5065  1.0  2.57782  2.15674  2.59982
 9900.62  11.5062  1  2.5777  2.15665  2.60129
 9900.87  11.5059  1.0  2.57749  2.15655  2.60278
 9901.11  11.5056  1  2.57726  2.15641  2.60399
 9901.37  11.5054  1.0  2.57725  2.15636  2.60536
 9901.61  11.5051  1  2.57699  2.15613  2.60634
 9901.87  11.5048  1.0  2.57678  2.15605  2.60717
 9902.11  11.5045  1  2.57658  2.15583  2.60803
 9902.36  11.5042  1.0  2.57638  2.15576  2.60877
 9902.62  11.5039  1  2.57623  2.15557  2.60943
 9902.86  11.5036  1.0  2.57602  2.15541  2.6098
 9903.12  11.5033  1  2.57569  2.15533  2.6103
 9903.36  11.503  1.0  2.57555  2.15522  2.61071
 9903.62  11.5027  1  2.57533  2.15497  2.6109
 9903.86  11.5024  1.0  2.57521  2.15493  2.61128
 9904.11  11.5021  1  2.57501  2.15477  2.61139
 9904.36  11.5018  1.0  2.57483  2.15463  2.61152
 9904.62  11.5015  1  2.57466  2.15453  2.61166
 9904.86  11.5012  1.0  2.57447  2.15436  2.61191
 9905.12  11.5009  1  2.5743  2.15425  2.61209
 9905.36  11.5006  1.0  2.57402  2.15411  2.61222
 9905.62  11.5003  1  2.5737  2.15386  2.61225
 9905.86  11.5001  1.0  2.57375  2.15391  2.61277
 9906.11  11.4998  1  2.57352  2.15376  2.61308
 9906.36  11.4995  1.0  2.57338  2.15361  2.61341
 9906.61  11.4992  1  2.57305  2.15351  2.61381
 9906.86  11.4989  1.0  2.57275  2.15321  2.61399
 9907.11  11.4986  1  2.5727  2.1532  2.61466
 9907.37  11.4983  1.0  2.57262  2.15309  2.61519
 9907.61  11.498  1  2.57238  2.15291  2.61576
 9907.86  11.4977  1.0  2.57219  2.15287  2.61617
 9908.11  11.4974  1  2.57186  2.1526  2.61661
 9908.36  11.4971  1.0  2.57174  2.15262  2.61716
 9908.61  11.4968  1  2.57168  2.15255  2.61759
 9908.86  11.4965  1.0  2.57148  2.1524  2.61791
 9909.11  11.4962  1  2.57133  2.15225  2.61828
 9909.36  11.4959  1.0  2.57088  2.15194  2.61835
 9909.61  11.4956  1  2.57086  2.15195  2.61869
 9909.86  11.4953  1.0  2.57529  2.15566  2.62338
 9910.11  11.4951  1  2.57674  2.15695  2.62528
 9910.36  11.4948  1.0  2.57654  2.15681  2.62526
 9910.61  11.4945  1  2.57614  2.15644  2.62486
 9910.86  11.4942  1.0  2.57618  2.1565  2.62511
 9911.11  11.4939  1  2.57595  2.15639  2.62496
 9911.36  11.4936  1.0  2.57579  2.15632  2.62476
 9911.61  11.4933  1  2.57558  2.15607  2.6247
 9911.86  11.493  1.0  2.57534  2.15604  2.62436
 9912.11  11.4927  1  2.57494  2.15565  2.62399
 9912.36  11.4924  1.0  2.57492  2.1557  2.62402
 9912.61  11.4921  1  2.57482  2.15559  2.62393
 9912.86  11.4918  1.0  2.57463  2.15547  2.62365
 9913.11  11.4915  1  2.57445  2.15535  2.62353
 9913.36  11.4912  1.0  2.5742  2.15523  2.62334
 9913.61  11.4909  1  2.57404  2.15504  2.62324
 9913.86  11.4906  1.0  2.57388  2.15497  2.6233
 9914.11  11.4904  1  2.57364  2.1549  2.62324
 9914.36  11.4901  1.0  2.5735  2.15473  2.62343
 9914.61  11.4898  1  2.57329  2.15452  2.62341
 9914.86  11.4895  1.0  2.57311  2.15444  2.62361
 9915.11  11.4892  1  2.57289  2.15423  2.62374
 9915.36  11.4889  1.0  2.57272  2.15407  2.62409
 9915.61  11.4886  1  2.57249  2.15399  2.62449
 9915.86  11.4883  1.0  2.57235  2.1539  2.62477
 9916.11  11.488  1  2.57211  2.15365  2.62526
 9916.36  11.4877  1.0  2.57188  2.15359  2.62583
 9916.61  11.4874  1  2.57169  2.15345  2.62646
 9916.86  11.4871  1.0  2.57152  2.15333  2.62708
 9917.11  11.4868  1  2.5714  2.15321  2.62774
 9917.36  11.4865  1.0  2.57125  2.1531  2.62839
 9917.61  11.4862  1  2.57095  2.1529  2.6291
 9917.86  11.486  1.0  2.57077  2.15282  2.62995
 9918.11  11.4857  1  2.57062  2.15271  2.63061
 9918.36  11.4854  1.0  2.57046  2.15257  2.63147
 9918.61  11.4851  1  2.57021  2.15241  2.63206
 9918.86  11.4848  1.0  2.57007  2.15234  2.63286
 9919.11  11.4845  1  2.56988  2.15222  2.63362
 9919.36  11.4842  1.0  2.56968  2.15208  2.63411
 9919.61  11.4839  1  2.56953  2.15192  2.63477
 9919.86  11.4836  1.0  2.56926  2.15179  2.63535
 9920.11  11.4833  1  2.56906  2.15163  2.63593
 9920.36  11.483  1.0  2.56893  2.15154  2.63631
 9920.61  11.4827  1  2.56868  2.15143  2.63675
 9920.86  11.4824  1.0  2.56853  2.15128  2.63699
 9921.11  11.4821  1  2.56829  2.15117  2.63724
 9921.36  11.4818  1.0  2.56814  2.151  2.63729
 9921.61  11.4816  1  2.5679  2.15087  2.63722
 9921.86  11.4813  1.0  2.56773  2.15073  2.63716
 9922.11  11.481  1  2.56757  2.1506  2.63708
 9922.36  11.4807  1.0  2.56741  2.15046  2.63689
 9922.61  11.4804  1  2.56718  2.15034  2.63648
 9922.86  11.4801  1.0  2.56702  2.15019  2.63609
 9923.11  11.4798  1  2.5669  2.15013  2.63579
 9923.36  11.4795  1.0  2.56659  2.14993  2.63528
 9923.61  11.4792  1  2.56635  2.14985  2.63462
 9923.86  11.4789  1.0  2.56624  2.14958  2.63395
 9924.11  11.4786  1  2.56612  2.14956  2.63339
 9924.36  11.4783  1.0  2.5659  2.14942  2.63272
 9924.61  11.478  1  2.56567  2.14925  2.63191
 9924.86  11.4777  1.0  2.56549  2.14919  2.63111
 9925.11  11.4774  1  2.56524  2.14901  2.6303
 9925.36  11.4772  1.0  2.56509  2.14887  2.62962
 9925.61  11.4769  1  2.56494  2.14875  2.62871
 9925.86  11.4766  1.0  2.56473  2.14864  2.62803
 9926.11  11.4763  1  2.5646  2.14847  2.62717
 9926.36  11.476  1.0  2.56431  2.14838  2.62631
 9926.61  11.4757  1  2.56408  2.14824  2.62547
 9926.86  11.4754  1.0  2.5639  2.14809  2.62474
 9927.11  11.4751  1  2.56375  2.148  2.624
 9927.36  11.4748  1.0  2.5635  2.14779  2.62314
 9927.61  11.4745  1  2.5633  2.14762  2.62228
 9927.86  11.4742  1.0  2.56311  2.14748  2.62157
 9928.11  11.4739  1  2.56295  2.14747  2.62085
 9928.36  11.4736  1.0  2.56282  2.14735  2.62011
 9928.61  11.4733  1  2.5627  2.14723  2.61952
 9928.86  11.4731  1.0  2.56239  2.1471  2.61881
 9929.11  11.4728  1  2.56215  2.14696  2.61815
 9929.36  11.4725  1.0  2.56207  2.14681  2.61744
 9929.61  11.4722  1  2.56191  2.14672  2.61699
 9929.86  11.4719  1.0  2.56171  2.14662  2.61643
 9930.11  11.4716  1  2.56164  2.14644  2.61601
 9930.36  11.4713  1.0  2.56129  2.14626  2.61528
 9940.37  11.4596  1  2.55531  2.14235  2.61691
 9950.37  11.4479  1.0  2.54664  2.13627  2.60795
 9960.37  11.4363  1  2.54084  2.13237  2.61137
 9970.37  11.4247  1.0  2.53755  2.13077  2.61611
 9980.36  11.4131  1  2.45509  2.06262  2.53263
 9990.36  11.4015  1.0  2.49684  2.09886  2.573
 10000.4  11.3899  1  2.50562  2.10725  2.58013
 10010.4  11.3784  1.0  2.51699  2.11788  2.60115
 10020.4  11.3669  1  2.46782  2.07749  2.5647
 10030.4  11.3554  1.0  2.50421  2.10933  2.60605
 10040.4  11.3439  1  2.49866  2.1057  2.60284
 10050.4  11.3325  1.0  2.493  2.10194  2.59508
 10060.4  11.3211  1  2.48718  2.09813  2.57981
 10070.3  11.3097  1.0  2.48142  2.09425  2.59083
 10080.3  11.2983  1  2.47571  2.09049  2.60013
 10090.4  11.287  1.0  2.47003  2.08671  2.59601
 10100.3  11.2757  1  2.46423  2.08289  2.59054
 10110.3  11.2644  1.0  2.45846  2.07899  2.58566
 10120.3  11.2531  1  2.45271  2.07513  2.58031
 10130.3  11.2419  1.0  2.44694  2.07121  2.57602
 10140.3  11.2306  1  2.44123  2.06746  2.57884
 10150.3  11.2194  1.0  2.43555  2.06364  2.58229
 10160.3  11.2082  1  2.42991  2.05988  2.58193
 10170.3  11.1971  1.0  2.42419  2.05597  2.57746
 10180.3  11.1859  1  2.41824  2.05188  2.57189
 10190.3  11.1748  1.0  2.41271  2.04821  2.56799
 10200.3  11.1637  1  2.40675  2.04409  2.56693
 10210.3  11.1526  1.0  2.40037  2.03958  2.56621
 10220.3  11.1416  1  2.39482  2.03587  2.56662
 10230.3  11.1306  1.0  2.38896  2.03183  2.56605
 10240.3  11.1196  1  2.38386  2.02842  2.56375
 10250.3  11.1086  1.0  2.37777  2.02413  2.56047
 10260.3  11.0976  1  2.36608  2.0151  2.5511
 10270.3  11.0867  1.0  2.36713  2.01698  2.55615
 10280.3  11.0758  1  2.35311  2.00599  2.54456
 10290.3  11.0649  1.0  2.35601  2.00929  2.55204
 10300.3  11.054  1  2.35029  2.00542  2.55148
 10310.3  11.0431  1.0  2.3448  2.0015  2.55057
 10320.3  11.0323  1  2.339  1.99757  2.54932
 10330.3  11.0215  1.0  2.33343  1.99367  2.5474
 10340.3  11.0107  1  2.32791  1.98981  2.54451
 10350.3  10.9999  1.0  2.32238  1.98595  2.5418
 10360.3  10.9892  1  2.3169  1.98212  2.53947
 10370.3  10.9784  1.0  2.31136  1.97826  2.53695
 10380.3  10.9677  1  2.30575  1.97448  2.53501
 10390.3  10.9571  1.0  2.30592  1.97545  2.53963
 10400.3  10.9464  1  2.30035  1.97148  2.5373
 10410.3  10.9357  1.0  2.29484  1.96758  2.53617
 10420.3  10.9251  1  2.28932  1.96375  2.53596
 10430.3  10.9145  1.0  2.28378  1.95982  2.53455
 10440.3  10.9039  1  2.27819  1.95587  2.53221
 10450.3  10.8934  1.0  2.27269  1.95198  2.52896
 10460.3  10.8828  1  2.26719  1.94814  2.52523
 10470.3  10.8723  1.0  2.26169  1.94422  2.52214
 10480.3  10.8618  1  2.25629  1.94034  2.52038
 10490.3  10.8513  1.0  2.25078  1.93636  2.51868
 10500.3  10.8409  1  2.24535  1.93253  2.51682
 10510.3  10.8305  1.0  2.23981  1.92862  2.51492
 10520.3  10.82  1  2.23434  1.92479  2.51331
 10530.3  10.8096  1.0  2.2277  1.91987  2.51084
 10540.3  10.7993  1  2.22092  1.91468  2.50756
 10550.3  10.7889  1.0  2.21776  1.91279  2.50795
 10560.3  10.7786  1  2.21251  1.90909  2.50535
 10570.3  10.7682  1.0  2.20674  1.90481  2.50189
 10580.3  10.7579  1  2.20184  1.90137  2.49915
 10590.3  10.7477  1.0  2.19658  1.89763  2.4963
 10600.3  10.7374  1  2.1912  1.89369  2.49368
 10610.3  10.7272  1.0  2.18349  1.88782  2.48929
 10620.3  10.717  1  2.1801  1.8857  2.48992
 10630.3  10.7068  1.0  2.17474  1.88169  2.48808
 10640.3  10.6966  1  2.16925  1.87778  2.48616
 10650.3  10.6864  1.0  2.1638  1.87372  2.48418
 10660.3  10.6763  1  2.15148  1.86384  2.47413
 10670.3  10.6662  1.0  2.14347  1.85761  2.4685
 10680.3  10.6561  1  2.14242  1.85742  2.47048
 10690.3  10.646  1.0  2.1431  1.85875  2.47417
 10700.3  10.6359  1  2.13758  1.85469  2.47098
 10710.3  10.6259  1.0  2.13219  1.85076  2.46831
 10720.3  10.6158  1  2.12683  1.84689  2.46576
 10730.3  10.6058  1.0  2.12163  1.843  2.46355
 10740.3  10.5958  1  2.11637  1.83911  2.46116
 10750.3  10.5859  1.0  2.11108  1.83519  2.45874
 10760.3  10.5759  1  2.10576  1.83127  2.4562
 10770.3  10.566  1.0  2.10038  1.8273  2.45394
 10780.3  10.5561  1  2.095  1.82333  2.4517
 10790.3  10.5462  1.0  2.08968  1.81938  2.44939
 10800.3  10.5363  1  2.08394  1.8151  2.44608
 10810.3  10.5265  1.0  2.07682  1.80952  2.44113
 10820.3  10.5166  1  2.07452  1.80813  2.44151
 10830.3  10.5068  1.0  2.06739  1.80263  2.43627
 10840.3  10.497  1  2.06387  1.80018  2.43522
 10850.3  10.4872  1.0  2.05812  1.79587  2.43174
 10860.3  10.4775  1  2.04595  1.78586  2.42105
 10870.3  10.4677  1.0  2.04868  1.78888  2.42784
 10880.2  10.458  1  2.04343  1.78497  2.42535
 10890.25  10.4483  1.0  2.03822  1.781  2.42267
 10900.2  10.4386  1  2.03296  1.77716  2.41983
 10910.2  10.4289  1.0  2.02784  1.77328  2.41723
 10920.2  10.4192  1  2.02269  1.76936  2.41449
 10930.2  10.4096  1.0  2.01759  1.7656  2.41212
 10940.2  10.4  1  2.01257  1.7618  2.40938
 10950.2  10.3904  1.0  2.00735  1.75787  2.40653
 10960.2  10.3808  1  2.00174  1.75361  2.40306
 10970.2  10.3712  1.0  1.99709  1.75002  2.40044
 10980.2  10.3617  1  1.99152  1.74591  2.39702
 10990.2  10.3522  1.0  1.98686  1.74232  2.39465
 11000.2  10.3426  1  1.9818  1.73847  2.39174
 11010.2  10.3331  1.0  1.97668  1.73459  2.38893
 11020.2  10.3237  1  1.97167  1.73075  2.38599
 11030.2  10.3142  1.0  1.9665  1.72687  2.38331
 11040.2  10.3048  1  1.96144  1.72305  2.38042
 11050.2  10.2953  1.0  1.95633  1.7192  2.37748
 11060.2  10.2859  1  1.95141  1.71532  2.37467
 11070.2  10.2765  1.0  1.94629  1.71144  2.37179
 11080.2  10.2672  1  1.93988  1.70631  2.36704
 11090.2  10.2578  1.0  1.93429  1.70203  2.36339
 11100.2  10.2485  1  1.93115  1.69979  2.36195
 11110.2  10.2392  1.0  1.92445  1.69454  2.3553