File: MEX1_29700_processed.xdi
# XDI/1.0
# Mono.d_spacing: 3.13897
# Reference.Element: Cr
# ROI.start_bin: nan
# ROI.end_bin: nan
# Element.symbol: None
# Element.edge: None
# Processing.version: spec_processing_library v0.3.5
# Column.1: energy
# Column.2: bragg
# Column.3: count_time seconds
# Column.4: i0
# Column.5: i1
# Column.6: i2
# Describe.Column.1: energy - MEX1ES01ZEB01:CALC_ENERGY_EV
# Describe.Column.2: bragg - MEX1ES01ZEB01:BRAGG_WITH_OFFSET
# Describe.Column.3: count_time - MEX1ES01ZEB01:GATE_TIME_SET
# Describe.Column.4: i0 - MEX1ES01DAQ01:ch1:S:MeanValue_RBV
# Describe.Column.5: i1 - MEX1ES01DAQ01:ch2:S:MeanValue_RBV
# Describe.Column.6: i2 - MEX1ES01DAQ01:ch3:S:MeanValue_RBV
# Samples: [417, 417, 417, 417, 417, 417]
# ///
# Cr foil
#
# xdi from default mda2xdi preset for mex1.
#--------
#  energy   bragg   count_time   i0   i1   i2
 5788.79  19.9477  1  2.56398  2.09  0.952808
 5798.79  19.9119  1.0  2.56446  2.10025  0.972533
 5808.79  19.8762  1  2.56482  2.1104  0.992545
 5818.79  19.8406  1.0  2.56515  2.12053  1.01274
 5828.79  19.8051  1  2.56526  2.13038  1.03331
 5838.79  19.7698  1.0  2.56527  2.14016  1.05384
 5848.79  19.7346  1  2.5649  2.14974  1.07463
 5858.79  19.6995  1.0  2.56435  2.15891  1.09545
 5868.79  19.6645  1  2.56321  2.16765  1.11638
 5878.79  19.6297  1.0  2.56149  2.17596  1.1372
 5888.79  19.595  1  2.5582  2.18275  1.15754
 5898.79  19.5605  1.0  2.55006  2.18543  1.17597
 5908.78  19.526  1  2.30773  1.98584  1.08451
 5918.78  19.4917  1.0  2.54937  2.20397  1.22034
 5928.78  19.4575  1  2.18266  1.89483  1.06562
 5938.78  19.4234  1.0  2.6012  2.26824  1.29179
 5948.78  19.3895  1  2.52692  2.21274  1.27732
 5958.78  19.3556  1.0  2.59905  2.28571  1.33701
 5968.78  19.3219  1  2.58891  2.28632  1.35372
 5969.03  19.3211  1.0  2.5887  2.28636  1.35426
 5969.28  19.3202  1  2.58854  2.28645  1.35468
 5969.53  19.3194  1.0  2.58842  2.2866  1.35509
 5969.78  19.3185  1  2.58825  2.28664  1.35559
 5970.03  19.3177  1.0  2.58793  2.28664  1.35593
 5970.28  19.3169  1  2.58778  2.28669  1.35628
 5970.53  19.316  1.0  2.58766  2.28685  1.35686
 5970.78  19.3152  1  2.58751  2.28697  1.35718
 5971.03  19.3143  1.0  2.58729  2.287  1.35767
 5971.28  19.3135  1  2.58711  2.28711  1.35805
 5971.53  19.3127  1.0  2.58699  2.28716  1.35838
 5971.78  19.3118  1  2.58673  2.28723  1.35875
 5972.03  19.311  1.0  2.58666  2.2873  1.35921
 5972.28  19.3101  1  2.58658  2.28756  1.35976
 5972.53  19.3093  1.0  2.58634  2.28756  1.36001
 5972.78  19.3085  1  2.58617  2.28767  1.36046
 5973.03  19.3076  1.0  2.58605  2.28784  1.361
 5973.28  19.3068  1  2.58598  2.28802  1.36133
 5973.53  19.3059  1.0  2.58578  2.28815  1.36169
 5973.78  19.3051  1  2.58564  2.28815  1.36201
 5974.03  19.3043  1.0  2.58553  2.28824  1.3625
 5974.28  19.3034  1  2.58535  2.28844  1.36291
 5974.53  19.3026  1.0  2.5852  2.28848  1.3631
 5974.78  19.3017  1  2.58511  2.28866  1.36351
 5975.03  19.3009  1.0  2.58492  2.28875  1.36393
 5975.28  19.3001  1  2.58476  2.28882  1.3644
 5975.53  19.2992  1.0  2.58457  2.28887  1.36468
 5975.78  19.2984  1  2.58439  2.28904  1.36501
 5976.03  19.2975  1.0  2.58422  2.2891  1.36524
 5976.28  19.2967  1  2.58412  2.2892  1.36554
 5976.53  19.2959  1.0  2.58403  2.28938  1.36589
 5976.78  19.295  1  2.58392  2.28949  1.36627
 5977.03  19.2942  1.0  2.58378  2.28963  1.3666
 5977.28  19.2933  1  2.58374  2.28977  1.36685
 5977.53  19.2925  1.0  2.58352  2.28985  1.36725
 5977.78  19.2917  1  2.58349  2.29007  1.3675
 5978.03  19.2908  1.0  2.58342  2.29025  1.3677
 5978.28  19.29  1  2.58329  2.29034  1.36804
 5978.53  19.2892  1.0  2.58316  2.29046  1.36826
 5978.78  19.2883  1  2.58296  2.29052  1.36842
 5979.03  19.2875  1.0  2.58282  2.29062  1.36871
 5979.28  19.2866  1  2.58276  2.29084  1.36896
 5979.53  19.2858  1.0  2.58265  2.29093  1.36911
 5979.78  19.285  1  2.58249  2.29104  1.3693
 5980.03  19.2841  1.0  2.58234  2.29119  1.36957
 5980.28  19.2833  1  2.58228  2.29136  1.36967
 5980.53  19.2824  1.0  2.58221  2.29152  1.36988
 5980.78  19.2816  1  2.58211  2.29168  1.36994
 5981.03  19.2808  1.0  2.58192  2.29183  1.36997
 5981.28  19.2799  1  2.58182  2.29196  1.36991
 5981.53  19.2791  1.0  2.58177  2.29208  1.37007
 5981.78  19.2783  1  2.58166  2.29225  1.37006
 5982.03  19.2774  1.0  2.58152  2.29228  1.36991
 5982.28  19.2766  1  2.58139  2.29244  1.36986
 5982.53  19.2757  1.0  2.58129  2.29259  1.36966
 5982.78  19.2749  1  2.58108  2.29267  1.36958
 5983.03  19.2741  1.0  2.5814  2.29313  1.36936
 5983.28  19.2732  1  2.58683  2.29829  1.37213
 5983.53  19.2724  1.0  2.58681  2.29844  1.37178
 5983.78  19.2716  1  2.5867  2.29856  1.37129
 5984.03  19.2707  1.0  2.5866  2.29874  1.37068
 5984.28  19.2699  1  2.58644  2.29886  1.36997
 5984.53  19.269  1.0  2.58631  2.29901  1.36929
 5984.78  19.2682  1  2.58615  2.29911  1.36836
 5985.03  19.2674  1.0  2.58609  2.29926  1.36724
 5985.28  19.2665  1  2.58606  2.29946  1.36596
 5985.53  19.2657  1.0  2.58591  2.29957  1.36443
 5985.78  19.2649  1  2.58578  2.29972  1.36244
 5986.03  19.264  1.0  2.5857  2.2999  1.36037
 5986.28  19.2632  1  2.58567  2.3  1.35769
 5986.53  19.2624  1.0  2.58553  2.30026  1.35437
 5986.78  19.2615  1  2.58544  2.30039  1.35005
 5987.03  19.2607  1.0  2.58525  2.30043  1.34459
 5987.28  19.2598  1  2.58518  2.30063  1.33769
 5987.53  19.259  1.0  2.58513  2.30072  1.32798
 5987.78  19.2582  1  2.58496  2.30083  1.31449
 5988.03  19.2573  1.0  2.58486  2.30098  1.29479
 5988.28  19.2565  1  2.58471  2.30109  1.2662
 5988.53  19.2557  1.0  2.58452  2.30121  1.22633
 5988.78  19.2548  1  2.58445  2.30137  1.17832
 5989.03  19.254  1.0  2.58431  2.30145  1.12908
 5989.28  19.2532  1  2.5842  2.30157  1.08686
 5989.53  19.2523  1.0  2.5841  2.30173  1.05432
 5989.78  19.2515  1  2.58397  2.30182  1.02835
 5990.03  19.2507  1.0  2.58386  2.30197  1.0048
 5990.28  19.2498  1  2.58369  2.30207  0.982662
 5990.53  19.249  1.0  2.58352  2.30217  0.96281
 5990.78  19.2482  1  2.58341  2.30234  0.945305
 5991.03  19.2473  1.0  2.58331  2.3025  0.929405
 5991.28  19.2465  1  2.58328  2.30268  0.914125
 5991.53  19.2456  1.0  2.58316  2.30281  0.899063
 5991.78  19.2448  1  2.583  2.30296  0.884684
 5992.03  19.244  1.0  2.58283  2.30304  0.870935
 5992.28  19.2431  1  2.58273  2.30318  0.858395
 5992.53  19.2423  1.0  2.58267  2.30335  0.846891
 5992.78  19.2415  1  2.58259  2.30351  0.836976
 5993.03  19.2406  1.0  2.58244  2.30363  0.828235
 5993.28  19.2398  1  2.58233  2.30374  0.821236
 5993.53  19.239  1.0  2.58233  2.30403  0.81557
 5993.78  19.2381  1  2.58217  2.30411  0.811355
 5994.03  19.2373  1.0  2.58202  2.3043  0.808514
 5994.28  19.2365  1  2.58189  2.30432  0.806889
 5994.53  19.2356  1.0  2.5819  2.30455  0.806448
 5994.78  19.2348  1  2.58181  2.30473  0.806664
 5995.03  19.234  1.0  2.58174  2.30488  0.807225
 5995.28  19.2331  1  2.58158  2.30499  0.807644
 5995.53  19.2323  1.0  2.58144  2.30512  0.807446
 5995.78  19.2315  1  2.58139  2.30532  0.80564
 5996.03  19.2306  1.0  2.58129  2.3055  0.801618
 5996.28  19.2298  1  2.58124  2.30565  0.794815
 5996.53  19.229  1.0  2.58109  2.30578  0.784914
 5996.78  19.2281  1  2.58101  2.30587  0.771701
 5997.03  19.2273  1.0  2.58094  2.30602  0.755479
 5997.28  19.2265  1  2.58077  2.3062  0.737549
 5997.53  19.2256  1.0  2.58058  2.3063  0.718232
 5997.78  19.2248  1  2.58054  2.30644  0.698704
 5998.03  19.224  1.0  2.58043  2.30656  0.679462
 5998.28  19.2231  1  2.5803  2.3067  0.660572
 5998.53  19.2223  1.0  2.58019  2.30683  0.642258
 5998.78  19.2215  1  2.58013  2.30703  0.624627
 5999.03  19.2206  1.0  2.58002  2.30718  0.607731
 5999.28  19.2198  1  2.57982  2.3072  0.591847
 5999.53  19.219  1.0  2.57965  2.30738  0.577143
 5999.78  19.2181  1  2.57963  2.3075  0.563733
 6000.03  19.2173  1.0  2.57954  2.30765  0.551585
 6000.28  19.2165  1  2.57952  2.30785  0.540549
 6000.53  19.2157  1.0  2.57937  2.308  0.530497
 6000.78  19.2148  1  2.57917  2.3081  0.521168
 6001.03  19.214  1.0  2.57913  2.30822  0.512591
 6001.28  19.2132  1  2.57907  2.30846  0.504339
 6001.53  19.2123  1.0  2.57899  2.30861  0.496605
 6001.78  19.2115  1  2.57883  2.30866  0.489254
 6002.03  19.2107  1.0  2.57872  2.3088  0.482196
 6002.28  19.2098  1  2.57857  2.30887  0.47536
 6002.53  19.209  1.0  2.57845  2.30912  0.468956
 6002.78  19.2082  1  2.5783  2.30919  0.462768
 6003.03  19.2073  1.0  2.57826  2.30938  0.45676
 6003.28  19.2065  1  2.57812  2.30947  0.450965
 6003.53  19.2057  1.0  2.57803  2.30955  0.445365
 6003.78  19.2048  1  2.5779  2.30973  0.439734
 6004.03  19.204  1.0  2.57787  2.30996  0.434346
 6004.28  19.2032  1  2.57781  2.31011  0.428881
 6004.53  19.2023  1.0  2.5777  2.31025  0.423398
 6004.78  19.2015  1  2.57758  2.31039  0.41785
 6005.03  19.2007  1.0  2.57743  2.31052  0.41243
 6005.28  19.1999  1  2.57737  2.31063  0.406839
 6005.53  19.199  1.0  2.57724  2.31077  0.401367
 6005.78  19.1982  1  2.57714  2.31096  0.396022
 6006.03  19.1974  1.0  2.57708  2.31109  0.390922
 6006.28  19.1965  1  2.57703  2.31134  0.386117
 6006.53  19.1957  1.0  2.57692  2.31145  0.381331
 6006.78  19.1949  1  2.5768  2.31156  0.376716
 6007.03  19.194  1.0  2.57667  2.3117  0.37193
 6007.28  19.1932  1  2.57667  2.31187  0.367172
 6007.53  19.1924  1.0  2.57657  2.31208  0.362213
 6007.78  19.1916  1  2.57646  2.31217  0.357306
 6008.03  19.1907  1.0  2.57622  2.31221  0.352717
 6008.28  19.1899  1  2.57616  2.31244  0.348764
 6008.53  19.1891  1.0  2.57617  2.31266  0.345685
 6008.78  19.1882  1  2.57609  2.31278  0.343565
 6009.03  19.1874  1.0  2.576  2.31296  0.342878
 6009.28  19.1866  1  2.57597  2.31312  0.343494
 6009.53  19.1857  1.0  2.57591  2.3133  0.345538
 6009.78  19.1849  1  2.57585  2.31351  0.348894
 6010.02  19.1841  1.0  2.57578  2.31367  0.353349
 6010.28  19.1833  1  2.57574  2.31384  0.358705
 6010.53  19.1824  1.0  2.57558  2.31395  0.364744
 6010.78  19.1816  1  2.57544  2.31414  0.371406
 6011.02  19.1808  1.0  2.57547  2.31432  0.378358
 6011.28  19.1799  1  2.57548  2.31447  0.385434
 6011.53  19.1791  1.0  2.57528  2.31464  0.392482
 6011.78  19.1783  1  2.57522  2.31482  0.399363
 6012.03  19.1775  1.0  2.57517  2.31506  0.405779
 6012.28  19.1766  1  2.57518  2.31533  0.41184
 6012.53  19.1758  1.0  2.57515  2.31549  0.41728
 6012.78  19.175  1  2.57514  2.31568  0.422098
 6013.03  19.1741  1.0  2.57499  2.31581  0.426137
 6013.28  19.1733  1  2.57484  2.31593  0.429418
 6013.52  19.1725  1.0  2.57476  2.31612  0.432006
 6013.77  19.1717  1  2.57465  2.31623  0.433756
 6014.02  19.1708  1.0  2.57458  2.31639  0.434789
 6014.27  19.17  1  2.57457  2.31659  0.43524
 6014.52  19.1692  1.0  2.57448  2.3168  0.434986
 6014.77  19.1683  1  2.57447  2.31691  0.434225
 6015.03  19.1675  1.0  2.57434  2.31715  0.432864
 6015.27  19.1667  1  2.57426  2.31723  0.431159
 6015.53  19.1659  1.0  2.5741  2.31738  0.428991
 6015.77  19.165  1  2.57405  2.31757  0.426512
 6016.02  19.1642  1.0  2.58017  2.32337  0.424804
 6016.27  19.1634  1  2.58014  2.32348  0.421893
 6016.52  19.1626  1.0  2.58012  2.32374  0.418955
 6016.77  19.1617  1  2.58006  2.3239  0.41592
 6017.02  19.1609  1.0  2.57999  2.32411  0.412873
 6017.27  19.1601  1  2.5799  2.32427  0.410057
 6017.52  19.1592  1.0  2.5798  2.32441  0.407493
 6017.77  19.1584  1  2.57975  2.32456  0.405198
 6018.02  19.1576  1.0  2.57963  2.32467  0.403181
 6018.27  19.1568  1  2.57952  2.32487  0.401538
 6018.52  19.1559  1.0  2.57948  2.32508  0.400243
 6018.77  19.1551  1  2.57952  2.32529  0.399329
 6019.02  19.1543  1.0  2.57942  2.32547  0.3989
 6019.27  19.1535  1  2.57931  2.32563  0.398673
 6019.52  19.1526  1.0  2.57923  2.32577  0.398873
 6019.77  19.1518  1  2.57909  2.32589  0.399425
 6020.02  19.151  1.0  2.57908  2.32604  0.400314
 6020.27  19.1502  1  2.57902  2.32627  0.401426
 6020.52  19.1493  1.0  2.57901  2.32643  0.402907
 6020.77  19.1485  1  2.57887  2.32664  0.404416
 6021.02  19.1477  1.0  2.5788  2.32671  0.406011
 6021.27  19.1469  1  2.57878  2.32691  0.40774
 6021.52  19.146  1.0  2.57873  2.32719  0.409433
 6021.77  19.1452  1  2.57869  2.32733  0.411068
 6022.02  19.1444  1.0  2.57851  2.3275  0.412656
 6022.27  19.1435  1  2.57844  2.32766  0.413911
 6022.52  19.1427  1.0  2.57831  2.32774  0.415038
 6022.77  19.1419  1  2.57832  2.32792  0.415856
 6023.02  19.1411  1.0  2.57826  2.3281  0.416341
 6023.27  19.1402  1  2.57819  2.32839  0.416509
 6023.52  19.1394  1.0  2.5781  2.32852  0.416382
 6023.77  19.1386  1  2.57797  2.32862  0.41581
 6024.02  19.1378  1.0  2.57783  2.32872  0.414925
 6024.27  19.1369  1  2.57777  2.32889  0.413824
 6024.52  19.1361  1.0  2.57769  2.32905  0.412258
 6024.77  19.1353  1  2.57768  2.3293  0.410681
 6025.02  19.1345  1.0  2.57768  2.32954  0.4089
 6025.27  19.1336  1  2.57755  2.32963  0.407013
 6025.52  19.1328  1.0  2.57753  2.32981  0.405086
 6025.77  19.132  1  2.57736  2.32995  0.403175
 6026.02  19.1312  1.0  2.57726  2.33003  0.401345
 6026.27  19.1303  1  2.57724  2.33026  0.399595
 6026.52  19.1295  1.0  2.57717  2.33048  0.397989
 6026.77  19.1287  1  2.57709  2.33064  0.396441
 6027.02  19.1279  1.0  2.57701  2.33078  0.395246
 6027.27  19.1271  1  2.57698  2.33103  0.394192
 6027.52  19.1262  1.0  2.57693  2.33122  0.393135
 6027.77  19.1254  1  2.57688  2.33144  0.392216
 6028.02  19.1246  1.0  2.57671  2.33153  0.39133
 6028.27  19.1238  1  2.57657  2.33159  0.390547
 6028.52  19.1229  1.0  2.57649  2.3318  0.389789
 6028.77  19.1221  1  2.57644  2.33201  0.389086
 6029.02  19.1213  1.0  2.57637  2.33213  0.388438
 6029.27  19.1205  1  2.57628  2.33224  0.387801
 6029.52  19.1196  1.0  2.57621  2.33247  0.387284
 6029.77  19.1188  1  2.57615  2.33256  0.386743
 6030.02  19.118  1.0  2.57614  2.33274  0.386373
 6030.27  19.1172  1  2.576  2.333  0.386011
 6030.52  19.1163  1.0  2.57606  2.33325  0.385748
 6030.77  19.1155  1  2.57597  2.33344  0.385616
 6031.02  19.1147  1.0  2.5759  2.33356  0.385499
 6031.27  19.1139  1  2.57583  2.33375  0.385503
 6031.52  19.1131  1.0  2.57574  2.33389  0.38561
 6031.77  19.1122  1  2.57566  2.33401  0.385737
 6032.02  19.1114  1.0  2.57562  2.33426  0.385989
 6032.27  19.1106  1  2.57559  2.33444  0.386093
 6032.52  19.1098  1.0  2.57545  2.33457  0.386307
 6032.77  19.1089  1  2.57537  2.33465  0.386445
 6033.02  19.1081  1.0  2.57523  2.33483  0.386602
 6033.27  19.1073  1  2.5752  2.33501  0.386726
 6033.52  19.1065  1.0  2.57516  2.33522  0.386868
 6033.77  19.1056  1  2.57504  2.33533  0.386779
 6034.02  19.1048  1.0  2.57488  2.33541  0.386737
 6034.27  19.104  1  2.57479  2.33556  0.386566
 6034.52  19.1032  1.0  2.57475  2.33585  0.386406
 6034.77  19.1024  1  2.57474  2.33603  0.386065
 6035.02  19.1015  1.0  2.57473  2.33626  0.385697
 6035.27  19.1007  1  2.57456  2.3363  0.385229
 6035.52  19.0999  1.0  2.57452  2.33652  0.384657
 6035.77  19.0991  1  2.57447  2.3367  0.384101
 6036.02  19.0983  1.0  2.57432  2.33679  0.383512
 6036.27  19.0974  1  2.57421  2.33697  0.38275
 6036.52  19.0966  1.0  2.57408  2.33706  0.382123
 6036.77  19.0958  1  2.57408  2.33728  0.381385
 6037.02  19.095  1.0  2.57403  2.33749  0.380629
 6037.27  19.0941  1  2.57397  2.33768  0.379917
 6037.52  19.0933  1.0  2.57396  2.33786  0.379298
 6037.77  19.0925  1  2.57381  2.33802  0.378646
 6038.02  19.0917  1.0  2.57376  2.33816  0.378267
 6038.27  19.0909  1  2.57367  2.33832  0.377899
 6038.52  19.09  1.0  2.57359  2.3384  0.377719
 6038.77  19.0892  1  2.57356  2.33864  0.377668
 6048.77  19.0564  1.0  2.57243  2.34698  0.409839
 6058.77  19.0238  1  2.57131  2.35518  0.468583
 6068.77  18.9912  1.0  2.57006  2.36335  0.423337
 6078.77  18.9588  1  2.56903  2.37157  0.468217
 6088.77  18.9265  1.0  2.56801  2.37983  0.482755
 6098.77  18.8943  1  2.56689  2.38804  0.391083
 6108.77  18.8622  1.0  2.56584  2.39612  0.47697
 6118.77  18.8302  1  2.56477  2.40429  0.52019
 6128.77  18.7983  1.0  2.56361  2.41224  0.533079
 6138.76  18.7666  1  2.56233  2.4201  0.548172
 6148.76  18.7349  1.0  2.56105  2.42787  0.530789
 6158.76  18.7034  1  2.55971  2.43559  0.513918
 6168.76  18.6719  1.0  2.55836  2.44324  0.500816
 6178.76  18.6406  1  2.55696  2.45086  0.563725
 6188.76  18.6094  1.0  2.55557  2.45839  0.595019
 6198.76  18.5782  1  2.55414  2.46589  0.614989
 6208.76  18.5472  1.0  2.55266  2.47326  0.639542
 6218.76  18.5163  1  2.55112  2.48059  0.657931
 6228.76  18.4855  1.0  2.54944  2.48772  0.63495
 6238.76  18.4548  1  2.54781  2.49491  0.608115
 6248.76  18.4242  1.0  2.54624  2.5021  0.619384
 6258.75  18.3937  1  2.5446  2.50912  0.684466
 6268.75  18.3633  1.0  2.54301  2.5161  0.70604
 6278.75  18.3331  1  2.54132  2.52308  0.723416
 6288.75  18.3029  1.0  2.53952  2.52989  0.732902
 6298.75  18.2728  1  2.53766  2.53662  0.754277
 6308.75  18.2428  1.0  2.53575  2.54319  0.770951
 6318.75  18.2129  1  2.53377  2.54971  0.768529
 6328.75  18.1831  1.0  2.5318  2.55614  0.766135
 6338.75  18.1535  1  2.52974  2.56243  0.776287
 6348.75  18.1239  1.0  2.52755  2.56864  0.800204
 6358.75  18.0944  1  2.52545  2.57487  0.827516
 6368.75  18.065  1.0  2.52336  2.5811  0.858648
 6378.75  18.0357  1  2.52123  2.58717  0.872377
 6388.75  18.0065  1.0  2.52483  2.59909  0.888409
 6398.74  17.9774  1  2.52256  2.60498  0.902471
 6408.74  17.9484  1.0  2.52038  2.61095  0.913685
 6418.74  17.9195  1  2.51806  2.61666  0.931463
 6428.74  17.8907  1.0  2.51581  2.62248  0.944288
 6438.74  17.862  1  2.51361  2.62828  0.950464
 6448.74  17.8333  1.0  2.51167  2.63433  0.969916
 6458.74  17.8048  1  2.50849  2.63904  0.994869
 6468.74  17.7764  1.0  2.50355  2.6418  1.01325
 6478.74  17.748  1  2.50257  2.64866  1.03239
 6488.74  17.7197  1.0  2.50027  2.65415  1.05182
 6498.74  17.6916  1  2.49775  2.65942  1.06415
 6508.73  17.6635  1.0  2.49525  2.66455  1.08144
 6518.73  17.6355  1  2.49261  2.66967  1.10385
 6528.73  17.6076  1.0  2.49005  2.67466  1.12444
 6538.73  17.5798  1  2.48745  2.67963  1.14085
 6548.73  17.5521  1.0  2.48464  2.68437  1.15426
 6558.73  17.5245  1  2.48189  2.68897  1.16877
 6568.73  17.4969  1.0  2.47916  2.69371  1.18738
 6578.73  17.4695  1  2.47643  2.69836  1.20724
 6588.73  17.4421  1.0  2.47352  2.70276  1.22905
 6598.73  17.4149  1  2.47025  2.70682  1.24873
 6608.73  17.3877  1.0  2.46722  2.71097  1.26654
 6618.73  17.3606  1  2.46439  2.71536  1.28496
 6628.73  17.3335  1.0  2.46157  2.71969  1.30287
 6638.72  17.3066  1  2.45854  2.72373  1.32355
 6648.72  17.2798  1.0  2.45554  2.72778  1.34463
 6658.72  17.253  1  2.45252  2.73183  1.36541
 6668.72  17.2263  1.0  2.44927  2.73547  1.38521
 6678.72  17.1997  1  2.44618  2.73931  1.4034
 6688.72  17.1732  1.0  2.44301  2.74292  1.42227
 6698.72  17.1468  1  2.43973  2.74646  1.44072
 6708.72  17.1204  1.0  2.43646  2.74998  1.45896
 6718.72  17.0942  1  2.43305  2.75331  1.47778
 6728.72  17.068  1.0  2.42984  2.75671  1.49764
 6738.72  17.0419  1  2.42648  2.75995  1.51844
 6748.72  17.0159  1.0  2.42313  2.76322  1.53977
 6758.72  16.9899  1  2.41979  2.76648  1.56104
 6768.71  16.9641  1.0  2.4164  2.7695  1.5823
 6778.71  16.9383  1  2.41325  2.77267  1.60387
 6788.71  16.9126  1.0  2.41004  2.77613  1.6259
 6798.71  16.887  1  2.40743  2.77993  1.64824
 6808.71  16.8614  1.0  2.23316  2.58462  1.55064
 6818.71  16.836  1  2.30446  2.67396  1.62271
 6828.71  16.8106  1.0  2.38677  2.77635  1.70483
 6838.71  16.7853  1  2.38805  2.78451  1.72891
 6848.71  16.76  1.0  2.3854  2.78814  1.7496
 6858.71  16.7349  1  2.38209  2.79087  1.77101
 6868.71  16.7098  1.0  2.37866  2.79354  1.79278
 6878.71  16.6848  1  2.37498  2.79574  1.8148
 6888.7  16.6599  1.0  2.37137  2.79804  1.83709
 6898.7  16.635  1  2.3676  2.80016  1.85931
 6908.7  16.6103  1.0  2.36405  2.80246  1.88187
 6918.7  16.5856  1  2.3602  2.80427  1.90507
 6928.7  16.5609  1.0  2.3564  2.80621  1.92836
 6938.7  16.5364  1  2.3527  2.80808  1.95238
 6948.7  16.5119  1.0  2.34871  2.80981  1.97575
 6958.7  16.4875  1  2.34492  2.81154  1.99885
 6968.7  16.4632  1.0  2.34094  2.81304  2.02086
 6978.7  16.4389  1  2.33701  2.81458  2.04302
 6988.7  16.4147  1.0  2.33297  2.81597  2.06568
 6998.69  16.3906  1  2.32906  2.81737  2.08857
 7008.69  16.3666  1.0  2.3252  2.81888  2.11152
 7018.69  16.3426  1  2.32111  2.82006  2.13464
 7028.69  16.3187  1.0  2.31736  2.82154  2.15814
 7038.69  16.2949  1  2.31341  2.82274  2.18147
 7048.69  16.2711  1.0  2.3093  2.82381  2.20525
 7058.69  16.2474  1  2.30537  2.82503  2.22939
 7068.69  16.2238  1.0  2.28149  2.80156  2.234
 7078.69  16.2003  1  2.29537  2.82461  2.27576
 7088.69  16.1768  1.0  2.29195  2.82625  2.30099
 7098.68  16.1534  1  2.28783  2.827  2.32533
 7108.68  16.13  1.0  2.28356  2.82763  2.34871
 7118.68  16.1068  1  2.27639  2.82446  2.35816
 7128.68  16.0835  1.0  2.26772  2.81935  2.37226
 7138.68  16.0604  1  2.26366  2.82008  2.38794
 7148.68  16.0373  1.0  2.25933  2.82032  2.41765
 7158.68  16.0143  1  2.25498  2.82057  2.44248
 7168.68  15.9914  1.0  2.25054  2.82063  2.46476
 7178.68  15.9685  1  2.24612  2.82076  2.48613
 7188.68  15.9457  1.0  2.24159  2.82054  2.5107
 7198.68  15.923  1  2.23704  2.82035  2.53586
 7208.68  15.9003  1.0  2.23304  2.82087  2.56134
 7218.67  15.8777  1  2.22814  2.82003  2.58507