File: MEX1_29693_processed.xdi
# XDI/1.0
# Mono.d_spacing: 3.13897
# Reference.Element: Se
# ROI.start_bin: nan
# ROI.end_bin: nan
# Element.symbol: None
# Element.edge: None
# Processing.version: spec_processing_library v0.3.5
# Column.1: energy
# Column.2: bragg
# Column.3: count_time seconds
# Column.4: i0
# Column.5: i1
# Column.6: i2
# Describe.Column.1: energy - MEX1ES01ZEB01:CALC_ENERGY_EV
# Describe.Column.2: bragg - MEX1ES01ZEB01:BRAGG_WITH_OFFSET
# Describe.Column.3: count_time - MEX1ES01ZEB01:GATE_TIME_SET
# Describe.Column.4: i0 - MEX1ES01DAQ01:ch1:S:MeanValue_RBV
# Describe.Column.5: i1 - MEX1ES01DAQ01:ch2:S:MeanValue_RBV
# Describe.Column.6: i2 - MEX1ES01DAQ01:ch3:S:MeanValue_RBV
# Samples: [417, 417, 417, 417, 417, 417]
# ///
# Se foil
#
# xdi from default mda2xdi preset for mex1.
#--------
#  energy   bragg   count_time   i0   i1   i2
 12457  9.12212  1.0  2.67823  2.44649  4.50349
 12467  9.11473  1  2.67944  2.448  4.50977
 12477  9.10736  1.0  2.67185  2.44167  4.50148
 12487  9.1  1  2.65083  2.42287  4.46975
 12497  9.09267  1.0  2.65649  2.42845  4.48315
 12507  9.08533  1  2.64851  2.42173  4.47374
 12517  9.07801  1.0  2.64078  2.41525  4.46434
 12527  9.07071  1  2.633  2.40857  4.45513
 12537  9.06341  1.0  2.62545  2.4021  4.44542
 12547  9.05613  1  2.61766  2.39533  4.4358
 12557  9.04886  1.0  2.60976  2.38882  4.42567
 12567  9.0416  1  2.60196  2.38212  4.41533
 12577  9.03435  1.0  2.59408  2.37548  4.40455
 12587  9.02712  1  2.58639  2.36856  4.39267
 12597  9.01989  1.0  2.57798  2.36144  4.37941
 12607  9.01267  1  2.5703  2.35484  4.36595
 12617  9.00547  1.0  2.56216  2.34793  4.34858
 12627  8.99829  1  2.55136  2.33846  4.32018
 12637  8.9911  1.0  2.54635  2.33429  4.28254
 12637.2  8.99094  1  2.54604  2.33421  4.28054
 12637.5  8.99076  1.0  2.5458  2.33388  4.2789
 12637.7  8.99058  1  2.54565  2.33383  4.27758
 12638  8.9904  1.0  2.54545  2.3336  4.27558
 12638.2  8.99022  1  2.54463  2.33285  4.27272
 12638.5  8.99004  1.0  2.54481  2.33309  4.2718
 12638.7  8.98986  1  2.54475  2.33284  4.26966
 12639  8.98969  1.0  2.54437  2.33277  4.26764
 12639.2  8.98951  1  2.54416  2.33257  4.26559
 12639.5  8.98933  1.0  2.54398  2.33234  4.2636
 12639.7  8.98915  1  2.54373  2.33218  4.26139
 12640  8.98897  1.0  2.54343  2.33188  4.25905
 12640.2  8.98879  1  2.54316  2.33173  4.25678
 12640.5  8.98861  1.0  2.54301  2.33147  4.25427
 12640.7  8.98843  1  2.54271  2.33121  4.25203
 12641  8.98825  1.0  2.54245  2.33096  4.24902
 12641.2  8.98807  1  2.54206  2.33074  4.24639
 12641.5  8.98789  1.0  2.54183  2.33056  4.24366
 12641.7  8.98771  1  2.5417  2.33033  4.24102
 12642  8.98753  1.0  2.54155  2.33015  4.23793
 12642.2  8.98736  1  2.54127  2.33001  4.23476
 12642.5  8.98718  1.0  2.541  2.32968  4.23173
 12642.7  8.987  1  2.54078  2.32954  4.22804
 12643  8.98682  1.0  2.54054  2.32938  4.22493
 12643.2  8.98664  1  2.54028  2.32914  4.22122
 12643.5  8.98646  1.0  2.54004  2.32881  4.21764
 12643.7  8.98628  1  2.53975  2.32867  4.21395
 12644  8.9861  1.0  2.53953  2.32852  4.20949
 12644.2  8.98592  1  2.53942  2.32838  4.20518
 12644.5  8.98574  1.0  2.53907  2.3281  4.20072
 12644.7  8.98556  1  2.53876  2.32778  4.1958
 12645  8.98538  1.0  2.53845  2.32754  4.19079
 12645.2  8.98521  1  2.53819  2.32739  4.18558
 12645.5  8.98503  1.0  2.53813  2.32721  4.18014
 12645.7  8.98485  1  2.53785  2.327  4.17448
 12646  8.98467  1.0  2.53763  2.32675  4.1686
 12646.2  8.98449  1  2.53731  2.32655  4.16207
 12646.5  8.98431  1.0  2.5372  2.32646  4.15528
 12646.7  8.98413  1  2.53693  2.32625  4.14802
 12647  8.98395  1.0  2.53665  2.326  4.14033
 12647.2  8.98377  1  2.53632  2.32573  4.13203
 12647.5  8.98359  1.0  2.53618  2.32549  4.12349
 12647.7  8.98342  1  2.53586  2.32528  4.11412
 12648  8.98324  1.0  2.53562  2.32516  4.10432
 12648.2  8.98306  1  2.53546  2.32489  4.09385
 12648.5  8.98288  1.0  2.53526  2.32478  4.0826
 12648.7  8.9827  1  2.535  2.32447  4.07032
 12649  8.98252  1.0  2.53473  2.32429  4.05747
 12649.2  8.98234  1  2.53445  2.32402  4.04352
 12649.5  8.98216  1.0  2.53431  2.32382  4.02866
 12649.7  8.98198  1  2.53405  2.32367  4.01194
 12650  8.9818  1.0  2.53375  2.32345  3.99452
 12650.2  8.98162  1  2.5335  2.32327  3.97504
 12650.5  8.98145  1.0  2.53337  2.32301  3.95425
 12650.7  8.98127  1  2.5331  2.3228  3.93119
 12651  8.98109  1.0  2.53276  2.32262  3.90604
 12651.2  8.98091  1  2.53247  2.32236  3.87845
 12651.5  8.98073  1.0  2.5323  2.32219  3.8479
 12651.7  8.98055  1  2.53201  2.322  3.81376
 12652  8.98037  1.0  2.53174  2.32168  3.77617
 12652.2  8.98019  1  2.53152  2.32154  3.73403
 12652.5  8.98002  1.0  2.53136  2.32142  3.68684
 12652.7  8.97984  1  2.53114  2.3212  3.63339
 12653  8.97966  1.0  2.53099  2.32094  3.57277
 12653.2  8.97948  1  2.53058  2.32061  3.5037
 12653.5  8.9793  1.0  2.53039  2.32049  3.42592
 12653.7  8.97912  1  2.5302  2.32035  3.33618
 12654  8.97894  1.0  2.52986  2.32011  3.2342
 12654.2  8.97876  1  2.52961  2.31999  3.11779
 12654.5  8.97859  1.0  2.52933  2.31972  2.98515
 12654.7  8.97841  1  2.52917  2.31943  2.83599
 12655  8.97823  1.0  2.52887  2.31934  2.6707
 12655.2  8.97805  1  2.5286  2.31907  2.48841
 12655.5  8.97787  1.0  2.52835  2.31879  2.29379
 12655.7  8.97769  1  2.52812  2.31858  2.08952
 12656  8.97751  1.0  2.52802  2.31848  1.88245
 12656.2  8.97733  1  2.5277  2.31828  1.68317
 12656.5  8.97715  1.0  2.52753  2.31814  1.49346
 12656.7  8.97698  1  2.52722  2.31786  1.32454
 12657  8.9768  1.0  2.52696  2.31759  1.18477
 12657.2  8.97662  1  2.5267  2.31744  1.07915
 12657.5  8.97644  1.0  2.52655  2.31719  1.01123
 12657.7  8.97626  1  2.52625  2.31708  0.980998
 12658  8.97608  1.0  2.52599  2.31684  0.985984
 12658.2  8.9759  1  2.52563  2.31648  1.02159
 12658.5  8.97572  1.0  2.52565  2.31637  1.08306
 12658.7  8.97554  1  2.52526  2.31614  1.16396
 12659  8.97537  1.0  2.52505  2.31593  1.2578
 12659.2  8.97519  1  2.52474  2.31568  1.35999
 12659.5  8.97501  1.0  2.52446  2.31548  1.46744
 12659.7  8.97483  1  2.52429  2.3153  1.57557
 12660  8.97465  1.0  2.52415  2.31512  1.68003
 12660.2  8.97447  1  2.52392  2.31496  1.77862
 12660.5  8.9743  1.0  2.52341  2.31454  1.86778
 12660.7  8.97412  1  2.52332  2.31442  1.94641
 12661  8.97394  1.0  2.52313  2.3143  2.01205
 12661.2  8.97376  1  2.52283  2.31401  2.06261
 12661.5  8.97358  1.0  2.5227  2.31385  2.09749
 12661.7  8.9734  1  2.52232  2.31356  2.11695
 12662  8.97322  1.0  2.52217  2.31337  2.12284
 12662.2  8.97304  1  2.52185  2.31318  2.11706
 12662.5  8.97287  1.0  2.5217  2.31308  2.10217
 12662.7  8.97269  1  2.52146  2.31282  2.08146
 12663  8.97251  1.0  2.52125  2.31252  2.05739
 12663.2  8.97233  1  2.52088  2.31221  2.03176
 12663.5  8.97215  1.0  2.52056  2.31193  2.00672
 12663.7  8.97197  1  2.52598  2.31703  1.98793
 12664  8.9718  1.0  2.52574  2.31672  1.96651
 12664.2  8.97162  1  2.52558  2.3166  1.94768
 12664.5  8.97144  1.0  2.52535  2.31638  1.93087
 12664.7  8.97126  1  2.52502  2.31631  1.91718
 12665  8.97108  1.0  2.52484  2.31607  1.90562
 12665.2  8.9709  1  2.52461  2.3157  1.89701
 12665.5  8.97072  1.0  2.52447  2.31571  1.89113
 12665.7  8.97055  1  2.52423  2.31536  1.88761
 12666  8.97037  1.0  2.52369  2.3149  1.88598
 12666.2  8.97019  1  2.52359  2.31496  1.88624
 12666.4  8.97001  1.0  2.52331  2.31467  1.88719
 12666.7  8.96983  1  2.52316  2.31449  1.88861
 12667  8.96965  1.0  2.52285  2.31425  1.89002
 12667.2  8.96947  1  2.52258  2.31404  1.89118
 12667.5  8.9693  1.0  2.52233  2.31385  1.8917
 12667.7  8.96912  1  2.52224  2.31367  1.89177
 12668  8.96894  1.0  2.52205  2.31359  1.89132
 12668.2  8.96876  1  2.52177  2.3133  1.89026
 12668.5  8.96858  1.0  2.52153  2.31309  1.88887
 12668.7  8.9684  1  2.52092  2.31265  1.88698
 12668.9  8.96823  1.0  2.52095  2.31259  1.88497
 12669.2  8.96805  1  2.52071  2.31237  1.88303
 12669.5  8.96787  1.0  2.52043  2.31219  1.88103
 12669.7  8.96769  1  2.52029  2.31205  1.87927
 12670  8.96751  1.0  2.52008  2.31178  1.87753
 12670.2  8.96733  1  2.51975  2.31165  1.87616
 12670.4  8.96716  1.0  2.51966  2.31154  1.8752
 12670.7  8.96698  1  2.51938  2.31134  1.8747
 12671  8.9668  1.0  2.51909  2.31097  1.87463
 12671.2  8.96662  1  2.51894  2.3107  1.87488
 12671.5  8.96644  1.0  2.51827  2.31029  1.87558
 12671.7  8.96626  1  2.51834  2.31037  1.87729
 12672  8.96608  1.0  2.5181  2.31015  1.87932
 12672.2  8.96591  1  2.51784  2.30985  1.88184
 12672.4  8.96573  1.0  2.51759  2.30967  1.88489
 12672.7  8.96555  1  2.51738  2.30945  1.88867
 12673  8.96537  1.0  2.51725  2.3094  1.89292
 12673.2  8.96519  1  2.51693  2.30907  1.89715
 12673.5  8.96501  1.0  2.51661  2.30889  1.90166
 12673.7  8.96484  1  2.51654  2.3087  1.90625
 12674  8.96466  1.0  2.51621  2.30841  1.91076
 12674.2  8.96448  1  2.5158  2.30813  1.91503
 12674.4  8.9643  1.0  2.51575  2.30806  1.91905
 12674.7  8.96412  1  2.51551  2.30786  1.92316
 12674.9  8.96395  1.0  2.51524  2.30774  1.92654
 12675.2  8.96377  1  2.51507  2.30751  1.92994
 12675.4  8.96359  1.0  2.51464  2.30729  1.93286
 12675.7  8.96341  1  2.5145  2.307  1.93547
 12676  8.96323  1.0  2.51429  2.30682  1.93791
 12676.2  8.96305  1  2.51411  2.30665  1.94013
 12676.5  8.96288  1.0  2.51384  2.30623  1.94226
 12676.7  8.9627  1  2.51359  2.30614  1.94382
 12677  8.96252  1.0  2.51331  2.30586  1.94538
 12677.2  8.96234  1  2.51297  2.30576  1.94677
 12677.5  8.96216  1.0  2.5129  2.30558  1.94804
 12677.7  8.96199  1  2.51259  2.30545  1.94886
 12677.9  8.96181  1.0  2.51233  2.30514  1.94985
 12678.2  8.96163  1  2.51199  2.30483  1.95024
 12678.4  8.96145  1.0  2.51173  2.30455  1.95095
 12678.7  8.96127  1  2.51166  2.3043  1.9511
 12678.9  8.96109  1.0  2.51129  2.30422  1.95141
 12679.2  8.96092  1  2.51109  2.30401  1.95147
 12679.4  8.96074  1.0  2.51084  2.30389  1.95141
 12679.7  8.96056  1  2.51065  2.30361  1.95123
 12679.9  8.96038  1.0  2.51025  2.30345  1.95095
 12680.2  8.9602  1  2.51019  2.30323  1.95072
 12680.4  8.96003  1.0  2.50993  2.30303  1.95046
 12680.7  8.95985  1  2.50967  2.30286  1.94995
 12680.9  8.95967  1.0  2.50934  2.30262  1.94949
 12681.2  8.95949  1  2.50928  2.3024  1.94912
 12681.4  8.95931  1.0  2.50894  2.30212  1.94895
 12681.7  8.95914  1  2.50868  2.30191  1.94862
 12681.9  8.95896  1.0  2.50843  2.30174  1.9483
 12682.2  8.95878  1  2.50825  2.30157  1.94818
 12682.4  8.9586  1.0  2.50802  2.30139  1.94793
 12682.7  8.95842  1  2.50787  2.30134  1.94814
 12682.9  8.95825  1.0  2.5076  2.30101  1.94822
 12683.2  8.95807  1  2.50735  2.30077  1.94785
 12683.4  8.95789  1.0  2.50698  2.30051  1.94801
 12683.7  8.95771  1  2.50674  2.30016  1.94783
 12683.9  8.95753  1.0  2.50651  2.30014  1.94775
 12684.2  8.95736  1  2.50641  2.29992  1.94766
 12684.4  8.95718  1.0  2.50603  2.29963  1.94766
 12684.7  8.957  1  2.50583  2.29947  1.94749
 12684.9  8.95682  1.0  2.50553  2.29921  1.94736
 12685.2  8.95664  1  2.50529  2.29896  1.94736
 12685.4  8.95647  1.0  2.50513  2.29881  1.9471
 12685.7  8.95629  1  2.50493  2.29863  1.94702
 12685.9  8.95611  1.0  2.50446  2.29842  1.94666
 12686.2  8.95593  1  2.50433  2.29807  1.94663
 12686.4  8.95575  1.0  2.50412  2.29801  1.94631
 12686.7  8.95558  1  2.50382  2.29765  1.94594
 12686.9  8.9554  1.0  2.50364  2.29754  1.94587
 12687.2  8.95522  1  2.50348  2.29736  1.94563
 12687.4  8.95504  1.0  2.50311  2.29704  1.94521
 12687.7  8.95486  1  2.50291  2.29675  1.94503
 12687.9  8.95469  1.0  2.50255  2.29659  1.94465
 12688.2  8.95451  1  2.50243  2.29644  1.94466
 12688.4  8.95433  1.0  2.50213  2.29625  1.94427
 12688.7  8.95415  1  2.50191  2.2961  1.94403
 12688.9  8.95398  1.0  2.50162  2.29582  1.94367
 12689.2  8.9538  1  2.50129  2.29566  1.94358
 12689.4  8.95362  1.0  2.50114  2.2954  1.94332
 12689.7  8.95344  1  2.50105  2.29523  1.94304
 12689.9  8.95327  1.0  2.50068  2.29497  1.94276
 12690.2  8.95309  1  2.50053  2.29481  1.9425
 12690.4  8.95291  1.0  2.50025  2.29452  1.94233
 12690.7  8.95273  1  2.50013  2.29436  1.94187
 12690.9  8.95255  1.0  2.49982  2.29415  1.94161
 12691.2  8.95238  1  2.49955  2.29406  1.94128
 12691.4  8.9522  1.0  2.49942  2.29381  1.94096
 12691.7  8.95202  1  2.49895  2.29354  1.94029
 12691.9  8.95184  1.0  2.4988  2.29334  1.93985
 12692.2  8.95166  1  2.49847  2.29309  1.9393
 12692.4  8.95149  1.0  2.49829  2.29294  1.93895
 12692.7  8.95131  1  2.49812  2.29271  1.93822
 12692.9  8.95113  1.0  2.4979  2.29261  1.9375
 12693.2  8.95095  1  2.49771  2.29232  1.93678
 12693.4  8.95078  1.0  2.49738  2.29208  1.93597
 12693.7  8.9506  1  2.49716  2.29186  1.93532
 12693.9  8.95042  1.0  2.49685  2.29162  1.93451
 12694.2  8.95024  1  2.49666  2.29139  1.9335
 12694.4  8.95006  1.0  2.49644  2.29127  1.93264
 12694.7  8.94989  1  2.49611  2.29102  1.93179
 12694.9  8.94971  1.0  2.49583  2.29076  1.93093
 12695.2  8.94953  1  2.49559  2.29054  1.93008
 12695.4  8.94935  1.0  2.49972  2.29435  1.93256
 12695.7  8.94918  1  2.50127  2.29573  1.93317
 12695.9  8.949  1.0  2.50097  2.29551  1.93238
 12696.2  8.94882  1  2.50085  2.2953  1.93154
 12696.4  8.94864  1.0  2.50054  2.29512  1.93075
 12696.7  8.94847  1  2.50034  2.29494  1.92994
 12696.9  8.94829  1.0  2.50005  2.29474  1.92927
 12697.2  8.94811  1  2.50002  2.29464  1.92856
 12697.4  8.94793  1.0  2.49965  2.29433  1.92792
 12697.7  8.94776  1  2.49936  2.29412  1.92726
 12697.9  8.94758  1.0  2.49917  2.29395  1.9268
 12698.2  8.9474  1  2.49891  2.29367  1.92647
 12698.4  8.94722  1.0  2.49863  2.29349  1.92589
 12698.7  8.94705  1  2.49838  2.29328  1.92549
 12698.9  8.94687  1.0  2.49819  2.29305  1.92527
 12699.2  8.94669  1  2.4979  2.29291  1.92501
 12699.4  8.94651  1.0  2.49765  2.29245  1.92486
 12699.7  8.94634  1  2.49731  2.29234  1.9247
 12699.9  8.94616  1.0  2.4971  2.29209  1.92491
 12700.2  8.94598  1  2.4969  2.29185  1.92479
 12700.4  8.9458  1.0  2.49662  2.2917  1.92508
 12700.7  8.94563  1  2.49638  2.29141  1.92522
 12700.9  8.94545  1.0  2.49612  2.29135  1.92573
 12701.2  8.94527  1  2.49591  2.29107  1.92616
 12701.4  8.94509  1.0  2.49574  2.29103  1.92677
 12701.7  8.94491  1  2.49552  2.29071  1.92748
 12701.9  8.94474  1.0  2.49531  2.29065  1.92822
 12702.2  8.94456  1  2.49504  2.2903  1.9291
 12702.4  8.94438  1.0  2.49469  2.29  1.92994
 12702.7  8.94421  1  2.49458  2.28992  1.93094
 12702.9  8.94403  1.0  2.49424  2.2896  1.93219
 12703.2  8.94385  1  2.49408  2.28935  1.93349
 12703.4  8.94367  1.0  2.49364  2.28911  1.93478
 12703.7  8.9435  1  2.49348  2.2889  1.93623
 12703.9  8.94332  1.0  2.49324  2.28879  1.93768
 12704.2  8.94314  1  2.49315  2.28874  1.93914
 12704.4  8.94296  1.0  2.49287  2.28849  1.94081
 12704.7  8.94279  1  2.49269  2.28826  1.94245
 12704.9  8.94261  1.0  2.49228  2.28801  1.94388
 12705.2  8.94243  1  2.4921  2.28761  1.94544
 12705.4  8.94225  1.0  2.49183  2.28761  1.94682
 12705.7  8.94208  1  2.49174  2.28737  1.9484
 12705.9  8.9419  1.0  2.49149  2.28711  1.94982
 12706.2  8.94172  1  2.49121  2.28698  1.95112
 12706.4  8.94155  1.0  2.49098  2.28682  1.95233
 12706.7  8.94137  1  2.49077  2.28655  1.9537
 12706.9  8.94119  1.0  2.49039  2.28641  1.9549
 12717  8.93408  1  2.48244  2.27944  1.95753
 12727  8.92701  1.0  2.47458  2.27254  1.95317
 12737  8.91995  1  2.44383  2.24497  1.91927
 12747  8.91289  1.0  2.45956  2.2596  1.93942
 12756.9  8.90586  1  2.45173  2.25282  1.95672
 12767  8.89882  1.0  2.444  2.24618  1.95896
 12777  8.8918  1  2.43627  2.23957  1.95065
 12787  8.88479  1.0  2.42864  2.2329  1.93549
 12796.9  8.8778  1  2.4209  2.22617  1.91757
 12806.9  8.87081  1.0  2.413  2.21939  1.9158
 12816.9  8.86383  1  2.4052  2.21266  1.93309
 12826.9  8.85687  1.0  2.39731  2.20576  1.95376
 12836.9  8.84992  1  2.38935  2.19885  1.95897
 12846.9  8.84297  1.0  2.37992  2.1906  1.94885
 12856.9  8.83604  1  2.37359  2.18523  1.93328
 12866.9  8.82912  1.0  2.36616  2.17873  1.91529
 12876.9  8.82221  1  2.35815  2.17182  1.90649
 12886.9  8.81531  1.0  2.35066  2.16508  1.90835
 12896.9  8.80842  1  2.34263  2.15828  1.91602
 12906.9  8.80154  1.0  2.33449  2.15121  1.92361
 12916.9  8.79467  1  2.32662  2.14428  1.92942
 12926.9  8.78782  1.0  2.3011  2.12117  1.91669
 12936.9  8.78097  1  2.30334  2.12361  1.92239
 12946.9  8.77414  1.0  2.30445  2.12506  1.92251
 12956.9  8.76731  1  2.29636  2.11787  1.91203
 12966.9  8.7605  1.0  2.28699  2.10959  1.90068
 12976.9  8.7537  1  2.28078  2.1042  1.89561
 12986.9  8.74691  1.0  2.27338  2.09776  1.89504
 12996.9  8.74012  1  2.26575  2.09105  1.89869
 13006.9  8.73335  1.0  2.25799  2.08425  1.90443
 13016.9  8.72659  1  2.25011  2.07744  1.90915
 13026.9  8.71984  1.0  2.24225  2.07059  1.9109
 13036.9  8.7131  1  2.23446  2.06368  1.90856
 13046.9  8.70638  1.0  2.22658  2.05673  1.90345
 13056.9  8.69965  1  2.21839  2.04962  1.89721
 13066.9  8.69295  1.0  2.21066  2.04279  1.89095
 13076.9  8.68625  1  2.20263  2.03566  1.88555
 13086.9  8.67956  1.0  2.19454  2.02866  1.88163
 13096.9  8.67288  1  2.18669  2.02174  1.87921
 13106.9  8.66622  1.0  2.1789  2.01478  1.87856
 13116.9  8.65956  1  2.17094  2.00776  1.87897
 13126.9  8.65291  1.0  2.16281  2.00056  1.87935
 13136.9  8.64628  1  2.15535  1.99404  1.88067
 13146.9  8.63965  1.0  2.14759  1.98716  1.88027
 13156.9  8.63304  1  2.13966  1.98015  1.87857
 13166.9  8.62643  1.0  2.13187  1.97343  1.87546
 13176.9  8.61984  1  2.12387  1.96623  1.87122
 13186.9  8.61325  1.0  2.11584  1.95911  1.86612
 13196.9  8.60668  1  2.10805  1.95228  1.86157
 13206.9  8.60011  1.0  2.10047  1.94546  1.8574
 13216.9  8.59356  1  2.09253  1.93848  1.85409
 13226.9  8.58701  1.0  2.08421  1.93104  1.85119
 13236.875  8.58048  1  2.07692  1.92464  1.8495
 13246.875  8.57395  1.0  2.06897  1.91749  1.84785
 13256.875  8.56743  1  2.06107  1.91051  1.84656
 13266.9  8.56093  1.0  2.05295  1.90347  1.84473
 13276.9  8.55444  1  2.04508  1.89629  1.84269
 13286.9  8.54795  1.0  2.03694  1.88913  1.84023
 13296.9  8.54147  1  2.02886  1.88184  1.83713
 13306.9  8.53501  1.0  2.02082  1.87478  1.83353
 13316.9  8.52855  1  2.01269  1.86754  1.82948
 13326.9  8.52211  1.0  2.00348  1.85924  1.824
 13336.9  8.51567  1  1.99651  1.85319  1.82084
 13346.9  8.50924  1.0  1.9883  1.84586  1.81633
 13356.9  8.50283  1  1.98008  1.8384  1.81213
 13366.9  8.49642  1.0  1.97191  1.83105  1.80815
 13376.9  8.49002  1  1.96367  1.82362  1.80452
 13386.8  8.48363  1.0  1.95518  1.81622  1.80093
 13396.8  8.47726  1  1.94693  1.80873  1.79767
 13406.8  8.47089  1.0  1.93857  1.80137  1.7944
 13416.8  8.46453  1  1.93013  1.79382  1.79112
 13426.8  8.45818  1.0  1.91933  1.78394  1.78515
 13436.8  8.45184  1  1.91339  1.77878  1.78385
 13446.8  8.44551  1.0  1.90833  1.77438  1.78284
 13456.8  8.43919  1  1.90082  1.76745  1.7794
 13466.8  8.43288  1.0  1.89218  1.7599  1.7747
 13476.8  8.42658  1  1.88145  1.75012  1.76798
 13486.8  8.42028  1.0  1.87501  1.74436  1.76477
 13496.8  8.414  1  1.86638  1.73649  1.75997
 13506.8  8.40773  1.0  1.85769  1.72876  1.75471
 13516.8  8.40146  1  1.84883  1.72083  1.74961
 13526.8  8.39521  1.0  1.83888  1.71174  1.74361
 13536.8  8.38896  1  1.82927  1.70319  1.73803
 13546.8  8.38273  1.0  1.82163  1.69631  1.73438
 13556.8  8.3765  1  1.80372  1.67988  1.72098
 13566.8  8.37028  1.0  1.77025  1.64888  1.69261
 13576.8  8.36408  1  1.78471  1.66266  1.71003
 13586.8  8.35788  1.0  1.78819  1.66617  1.71697
 13596.8  8.35169  1  1.77072  1.65008  1.7036
 13606.8  8.34551  1.0  1.76997  1.64966  1.70636
 13616.8  8.33933  1  1.75896  1.6396  1.69917
 13626.8  8.33317  1.0  1.75124  1.63263  1.69483
 13636.8  8.32702  1  1.74183  1.62414  1.68898
 13646.8  8.32088  1.0  1.73248  1.61559  1.68304
 13656.8  8.31474  1  1.72302  1.60699  1.67667
 13666.8  8.30862  1.0  1.71352  1.59834  1.6704
 13676.8  8.3025  1  1.70387  1.58973  1.66396
 13686.8  8.29639  1.0  1.69433  1.58088  1.65742
 13696.8  8.29029  1  1.68456  1.57204  1.65082
 13706.8  8.2842  1.0  1.67475  1.56305  1.64422
 13716.8  8.27812  1  1.66488  1.55413  1.63767
 13726.8  8.27205  1.0  1.65496  1.54508  1.63061
 13736.8  8.26598  1  1.64483  1.53586  1.62404
 13746.8  8.25993  1.0  1.6345  1.52645  1.61676
 13756.8  8.25389  1  1.62454  1.51738  1.6099
 13766.8  8.24785  1.0  1.61406  1.50776  1.60256
 13776.8  8.24182  1  1.60338  1.49794  1.59493
 13786.8  8.23581  1.0  1.59289  1.4885  1.5875
 13796.8  8.2298  1  1.58218  1.47866  1.57961
 13806.8  8.22379  1.0  1.5713  1.46867  1.57163
 13816.8  8.2178  1  1.56045  1.45866  1.56334
 13826.8  8.21182  1.0  1.54936  1.44847  1.55487
 13836.8  8.20585  1  1.53795  1.4382  1.54636
 13846.8  8.19988  1.0  1.52643  1.42746  1.53726
 13856.8  8.19392  1  1.51518  1.41719  1.52858
 13866.8  8.18797  1.0  1.5035  1.40637  1.51907
 13876.8  8.18203  1  1.49205  1.39594  1.51017
 13886.8  8.1761  1.0  1.48023  1.38513  1.50089