File: MEX1_29694_processed.xdi
# XDI/1.0
# Mono.d_spacing: 3.13897
# Reference.Element: Zn
# ROI.start_bin: nan
# ROI.end_bin: nan
# Element.symbol: None
# Element.edge: None
# Processing.version: spec_processing_library v0.3.5
# Column.1: energy
# Column.2: bragg
# Column.3: count_time seconds
# Column.4: i0
# Column.5: i1
# Column.6: i2
# Describe.Column.1: energy - MEX1ES01ZEB01:CALC_ENERGY_EV
# Describe.Column.2: bragg - MEX1ES01ZEB01:BRAGG_WITH_OFFSET
# Describe.Column.3: count_time - MEX1ES01ZEB01:GATE_TIME_SET
# Describe.Column.4: i0 - MEX1ES01DAQ01:ch1:S:MeanValue_RBV
# Describe.Column.5: i1 - MEX1ES01DAQ01:ch2:S:MeanValue_RBV
# Describe.Column.6: i2 - MEX1ES01DAQ01:ch3:S:MeanValue_RBV
# Samples: [417, 417, 417, 417, 417, 417]
# ///
# Zn foil
#
# xdi from default mda2xdi preset for mex1.
#--------
#  energy   bragg   count_time   i0   i1   i2
 9458.41  12.0521  1  2.84401  2.319  2.65397
 9468.43  12.0391  1.0  2.83824  2.31575  2.65472
 9478.43  12.0262  1  2.83209  2.31219  2.65545
 9488.43  12.0134  1.0  2.82592  2.30864  2.65571
 9498.42  12.0005  1  2.81973  2.30496  2.65574
 9508.42  11.9877  1.0  2.81354  2.30137  2.65588
 9518.42  11.9749  1  2.80734  2.29774  2.65579
 9528.42  11.9622  1.0  2.80123  2.29418  2.65621
 9538.42  11.9495  1  2.79509  2.29054  2.65673
 9548.42  11.9368  1.0  2.78899  2.28692  2.65665
 9558.42  11.9241  1  2.78277  2.28327  2.65612
 9568.42  11.9115  1.0  2.77652  2.27963  2.656
 9578.41  11.8988  1  2.7704  2.27582  2.65547
 9588.42  11.8863  1.0  2.76416  2.27214  2.6546
 9598.41  11.8737  1  2.758  2.26844  2.65258
 9608.41  11.8612  1.0  2.75179  2.26475  2.64998
 9618.41  11.8487  1  2.74564  2.26099  2.64599
 9628.41  11.8362  1.0  2.73951  2.25732  2.63964
 9638.41  11.8237  1  2.73287  2.25317  2.62599
 9638.65  11.8234  1.0  2.73218  2.25268  2.62499
 9638.9  11.8231  1  2.73132  2.25196  2.62382
 9639.15  11.8228  1.0  2.72998  2.25091  2.6222
 9639.4  11.8225  1  2.72842  2.24957  2.62014
 9639.65  11.8222  1.0  2.72679  2.24832  2.6184
 9639.9  11.8219  1  2.72639  2.24802  2.61761
 9640.15  11.8215  1.0  2.72589  2.24771  2.61673
 9640.4  11.8212  1  2.72565  2.24748  2.61593
 9640.65  11.8209  1.0  2.72621  2.2479  2.61595
 9640.9  11.8206  1  2.7272  2.2488  2.61648
 9641.15  11.8203  1.0  2.73497  2.25526  2.62358
 9641.4  11.82  1  2.73525  2.2554  2.6233
 9641.65  11.8197  1.0  2.73435  2.25479  2.62199
 9641.9  11.8194  1  2.73284  2.25356  2.61987
 9642.15  11.8191  1.0  2.73154  2.25251  2.61819
 9642.4  11.8187  1  2.73046  2.25169  2.61651
 9642.65  11.8184  1.0  2.72989  2.25133  2.61538
 9642.9  11.8181  1  2.7297  2.25116  2.61452
 9643.15  11.8178  1.0  2.72974  2.25122  2.61394
 9643.4  11.8175  1  2.73086  2.25219  2.61457
 9643.65  11.8172  1.0  2.73239  2.25346  2.6152
 9643.9  11.8169  1  2.73357  2.25446  2.61558
 9644.15  11.8166  1.0  2.73404  2.2549  2.61534
 9644.4  11.8163  1  2.73384  2.25479  2.6146
 9644.65  11.816  1.0  2.73415  2.25505  2.61387
 9644.9  11.8156  1  2.73392  2.25491  2.6128
 9645.15  11.8153  1.0  2.7337  2.25481  2.61178
 9645.4  11.815  1  2.73355  2.25469  2.61085
 9645.65  11.8147  1.0  2.7331  2.25436  2.60939
 9645.9  11.8144  1  2.73334  2.2546  2.60856
 9646.15  11.8141  1.0  2.73319  2.25454  2.60749
 9646.4  11.8138  1  2.73298  2.25427  2.60615
 9646.65  11.8135  1.0  2.73274  2.25414  2.60493
 9646.9  11.8132  1  2.73256  2.25406  2.60352
 9647.15  11.8128  1.0  2.73246  2.25401  2.60242
 9647.4  11.8125  1  2.73223  2.2538  2.60076
 9647.65  11.8122  1.0  2.73195  2.25363  2.59924
 9647.9  11.8119  1  2.7318  2.25353  2.59781
 9648.15  11.8116  1.0  2.73161  2.25342  2.59619
 9648.4  11.8113  1  2.73131  2.25323  2.59448
 9648.65  11.811  1.0  2.73081  2.25284  2.59246
 9648.9  11.8107  1  2.73024  2.25242  2.59046
 9649.15  11.8104  1.0  2.72951  2.25179  2.58796
 9649.4  11.8101  1  2.72824  2.25077  2.58505
 9649.65  11.8097  1.0  2.72661  2.24954  2.58168
 9649.9  11.8094  1  2.72525  2.24842  2.57856
 9650.15  11.8091  1.0  2.72439  2.24774  2.57573
 9650.4  11.8088  1  2.724  2.2475  2.57335
 9650.65  11.8085  1.0  2.72385  2.24736  2.57099
 9650.9  11.8082  1  2.72415  2.24765  2.56891
 9651.15  11.8079  1.0  2.72524  2.2486  2.56756
 9651.4  11.8076  1  2.72674  2.24987  2.56627
 9651.65  11.8073  1.0  2.72766  2.25067  2.56444
 9651.9  11.8069  1  2.72793  2.25091  2.56183
 9652.15  11.8066  1.0  2.72797  2.25096  2.55867
 9652.4  11.8063  1  2.72773  2.25082  2.55534
 9652.65  11.806  1.0  2.72775  2.25076  2.55169
 9652.9  11.8057  1  2.72744  2.25071  2.54791
 9653.15  11.8054  1.0  2.72735  2.25064  2.54383
 9653.4  11.8051  1  2.72723  2.25051  2.53935
 9653.65  11.8048  1.0  2.72692  2.25031  2.53471
 9653.9  11.8045  1  2.72679  2.25021  2.52965
 9654.15  11.8042  1.0  2.7266  2.25011  2.52428
 9654.4  11.8038  1  2.72644  2.25005  2.51866
 9654.65  11.8035  1.0  2.72628  2.24991  2.51242
 9654.9  11.8032  1  2.72599  2.24971  2.50562
 9655.15  11.8029  1.0  2.72576  2.2496  2.49852
 9655.4  11.8026  1  2.72573  2.24956  2.49064
 9655.65  11.8023  1.0  2.72553  2.24942  2.48203
 9655.9  11.802  1  2.72525  2.24919  2.47246
 9656.15  11.8017  1.0  2.72502  2.24904  2.46217
 9656.4  11.8014  1  2.72473  2.24886  2.45048
 9656.65  11.8011  1.0  2.72468  2.24882  2.43785
 9656.9  11.8007  1  2.72447  2.24873  2.42357
 9657.15  11.8004  1.0  2.72422  2.2485  2.40743
 9657.4  11.8001  1  2.72402  2.24838  2.38903
 9657.65  11.7998  1.0  2.72381  2.24823  2.36789
 9657.9  11.7995  1  2.72384  2.24828  2.34398
 9658.15  11.7992  1.0  2.72352  2.24821  2.31571
 9658.4  11.7989  1  2.72315  2.24791  2.282
 9658.65  11.7986  1.0  2.72317  2.24779  2.24232
 9658.9  11.7983  1  2.72285  2.24768  2.194
 9659.15  11.798  1.0  2.72275  2.24761  2.13496
 9659.4  11.7977  1  2.72252  2.24744  2.06275
 9659.65  11.7973  1.0  2.72222  2.24724  1.97483
 9659.9  11.797  1  2.72202  2.2471  1.87095
 9660.15  11.7967  1.0  2.72164  2.24683  1.75169
 9660.4  11.7964  1  2.72167  2.24683  1.62135
 9660.65  11.7961  1.0  2.72138  2.24661  1.48625
 9660.9  11.7958  1  2.72096  2.24641  1.35293
 9661.15  11.7955  1.0  2.72067  2.2461  1.23001
 9661.4  11.7952  1  2.72059  2.24613  1.1207
 9661.65  11.7949  1.0  2.72034  2.24596  1.02746
 9661.9  11.7946  1  2.72001  2.24569  0.949097
 9662.15  11.7942  1.0  2.71981  2.24567  0.883906
 9662.4  11.7939  1  2.71937  2.24531  0.828042
 9662.65  11.7936  1.0  2.71933  2.24534  0.780749
 9662.9  11.7933  1  2.71913  2.24523  0.740209
 9663.15  11.793  1.0  2.71892  2.245  0.70548
 9663.4  11.7927  1  2.71867  2.24486  0.675949
 9663.65  11.7924  1.0  2.7183  2.24459  0.651002
 9663.9  11.7921  1  2.71823  2.24448  0.629905
 9664.15  11.7918  1.0  2.71789  2.24435  0.612415
 9664.39  11.7915  1  2.71765  2.2442  0.597796
 9664.65  11.7912  1.0  2.71742  2.24398  0.585417
 9664.9  11.7908  1  2.71726  2.24384  0.574671
 9665.15  11.7905  1.0  2.71687  2.24366  0.564542
 9665.4  11.7902  1  2.71671  2.24346  0.554516
 9665.64  11.7899  1.0  2.71654  2.24342  0.543864
 9665.9  11.7896  1  2.71637  2.24323  0.532314
 9666.14  11.7893  1.0  2.71614  2.24305  0.51999
 9666.4  11.789  1  2.71587  2.24286  0.506825
 9666.65  11.7887  1.0  2.71556  2.2427  0.493385
 9666.89  11.7884  1  2.71542  2.24265  0.479939
 9667.15  11.7881  1.0  2.71525  2.24247  0.466618
 9667.4  11.7877  1  2.71496  2.24232  0.453873
 9667.64  11.7874  1.0  2.7149  2.24224  0.441827
 9667.9  11.7871  1  2.71455  2.24208  0.430444
 9668.14  11.7868  1.0  2.71438  2.24195  0.419935
 9668.39  11.7865  1  2.71416  2.24175  0.410154
 9668.64  11.7862  1.0  2.71401  2.24168  0.401022
 9668.9  11.7859  1  2.71375  2.24149  0.392465
 9669.14  11.7856  1.0  2.71367  2.2414  0.384746
 9669.39  11.7853  1  2.7134  2.24124  0.377643
 9669.65  11.785  1.0  2.71317  2.24109  0.371267
 9669.89  11.7847  1  2.71291  2.24089  0.365778
 9670.14  11.7844  1.0  2.71275  2.24083  0.361396
 9670.39  11.784  1  2.71259  2.24074  0.358182
 9670.64  11.7837  1.0  2.71239  2.24054  0.356419
 9670.9  11.7834  1  2.7121  2.2404  0.356295
 9671.14  11.7831  1.0  2.71199  2.24025  0.358055
 9671.39  11.7828  1  2.71174  2.24017  0.361861
 9671.64  11.7825  1.0  2.71153  2.24006  0.367862
 9671.89  11.7822  1  2.71133  2.23991  0.375868
 9672.14  11.7819  1.0  2.71108  2.23975  0.385847
 9672.39  11.7816  1  2.71083  2.23957  0.3973
 9672.64  11.7813  1.0  2.7107  2.23941  0.409839
 9672.89  11.781  1  2.71051  2.23936  0.422897
 9673.14  11.7806  1.0  2.71033  2.23922  0.436156
 9673.39  11.7803  1  2.71023  2.23915  0.449072
 9673.64  11.78  1.0  2.70999  2.23903  0.461273
 9673.89  11.7797  1  2.70979  2.2388  0.472542
 9674.14  11.7794  1.0  2.70955  2.2387  0.482556
 9674.39  11.7791  1  2.70948  2.23869  0.491181
 9674.64  11.7788  1.0  2.7092  2.23837  0.498517
 9674.89  11.7785  1  2.71474  2.24304  0.505746
 9675.14  11.7782  1.0  2.7153  2.24362  0.511029
 9675.39  11.7779  1  2.71518  2.24349  0.515328
 9675.64  11.7776  1.0  2.71496  2.24333  0.518833
 9675.89  11.7772  1  2.71477  2.24328  0.52182
 9676.14  11.7769  1.0  2.71454  2.24312  0.524113
 9676.39  11.7766  1  2.71435  2.24301  0.525804
 9676.64  11.7763  1.0  2.71404  2.24277  0.526925
 9676.89  11.776  1  2.71396  2.24268  0.527603
 9677.14  11.7757  1.0  2.71378  2.24255  0.527845
 9677.39  11.7754  1  2.71357  2.24245  0.527791
 9677.64  11.7751  1.0  2.71334  2.24226  0.527519
 9677.89  11.7748  1  2.71318  2.24221  0.527205
 9678.14  11.7745  1.0  2.71297  2.24208  0.526945
 9678.39  11.7742  1  2.71271  2.24188  0.526923
 9678.64  11.7739  1.0  2.71256  2.24178  0.527222
 9678.89  11.7735  1  2.7124  2.24166  0.527984
 9679.14  11.7732  1.0  2.71226  2.24155  0.529149
 9679.39  11.7729  1  2.71188  2.24138  0.530883
 9679.64  11.7726  1.0  2.7118  2.24129  0.533159
 9679.89  11.7723  1  2.71151  2.24115  0.535913
 9680.14  11.772  1.0  2.71133  2.24104  0.539201
 9680.39  11.7717  1  2.7111  2.24079  0.542932
 9680.64  11.7714  1.0  2.71101  2.24078  0.547005
 9680.89  11.7711  1  2.71083  2.24063  0.551458
 9681.14  11.7708  1.0  2.71052  2.24039  0.556098
 9681.39  11.7705  1  2.71042  2.24035  0.560856
 9681.64  11.7702  1.0  2.71021  2.24028  0.565717
 9681.89  11.7698  1  2.71  2.24012  0.570332
 9682.14  11.7695  1.0  2.70983  2.23996  0.574846
 9682.39  11.7692  1  2.70963  2.2399  0.579018
 9682.64  11.7689  1.0  2.70936  2.23968  0.582854
 9682.89  11.7686  1  2.7092  2.23953  0.586174
 9683.14  11.7683  1.0  2.70902  2.23948  0.589089
 9683.39  11.768  1  2.70888  2.23935  0.591472
 9683.64  11.7677  1.0  2.70873  2.23928  0.593476
 9683.89  11.7674  1  2.70849  2.23909  0.595138
 9684.14  11.7671  1.0  2.70816  2.23889  0.596385
 9684.39  11.7668  1  2.7081  2.23883  0.597392
 9684.64  11.7665  1.0  2.70781  2.23861  0.598113
 9684.89  11.7661  1  2.70762  2.23853  0.598587
 9685.14  11.7658  1.0  2.70751  2.23842  0.598885
 9685.39  11.7655  1  2.70719  2.23827  0.598939
 9685.64  11.7652  1.0  2.70704  2.23813  0.598742
 9685.89  11.7649  1  2.70673  2.23792  0.598335
 9686.14  11.7646  1.0  2.70663  2.2378  0.597669
 9686.39  11.7643  1  2.70638  2.23766  0.596825
 9686.64  11.764  1.0  2.7061  2.23742  0.595623
 9686.89  11.7637  1  2.70566  2.23719  0.594281
 9687.14  11.7634  1.0  2.70538  2.23691  0.592564
 9687.39  11.7631  1  2.7049  2.23662  0.590725
 9687.64  11.7628  1.0  2.70454  2.23638  0.5887
 9687.89  11.7625  1  2.70417  2.2361  0.586417
 9688.14  11.7621  1.0  2.70386  2.23585  0.584053
 9688.39  11.7618  1  2.70366  2.23577  0.581565
 9688.64  11.7615  1.0  2.70362  2.2357  0.578898
 9688.89  11.7612  1  2.70358  2.23571  0.576162
 9689.14  11.7609  1.0  2.70358  2.23578  0.573283
 9689.39  11.7606  1  2.70359  2.23569  0.570315
 9689.64  11.7603  1.0  2.70347  2.23569  0.567251
 9689.89  11.76  1  2.70332  2.2356  0.564113
 9690.14  11.7597  1.0  2.70323  2.23553  0.560925
 9690.39  11.7594  1  2.70301  2.2355  0.557654
 9690.64  11.7591  1.0  2.70286  2.23534  0.554381
 9690.89  11.7588  1  2.70272  2.23517  0.550986
 9691.14  11.7585  1.0  2.70241  2.2351  0.547566
 9691.39  11.7581  1  2.7022  2.23488  0.544203
 9691.64  11.7578  1.0  2.70202  2.23473  0.540755
 9691.89  11.7575  1  2.70177  2.23464  0.537356
 9692.14  11.7572  1.0  2.70167  2.23452  0.533929
 9692.39  11.7569  1  2.7015  2.23449  0.530517
 9692.64  11.7566  1.0  2.70129  2.23434  0.527161
 9692.89  11.7563  1  2.70105  2.23418  0.523773
 9693.14  11.756  1.0  2.70088  2.23403  0.520473
 9693.39  11.7557  1  2.70066  2.23392  0.517246
 9693.64  11.7554  1.0  2.70058  2.23383  0.514186
 9693.89  11.7551  1  2.70035  2.23366  0.511192
 9694.14  11.7548  1.0  2.70016  2.23355  0.508295
 9694.39  11.7545  1  2.69992  2.23339  0.505552
 9694.64  11.7541  1.0  2.69966  2.23327  0.50297
 9694.89  11.7538  1  2.6995  2.23308  0.500534
 9695.14  11.7535  1.0  2.69935  2.23299  0.498282
 9695.39  11.7532  1  2.69918  2.23282  0.496143
 9695.64  11.7529  1.0  2.69891  2.23271  0.494162
 9695.89  11.7526  1  2.6987  2.23252  0.492335
 9696.14  11.7523  1.0  2.69844  2.23243  0.490683
 9696.39  11.752  1  2.69826  2.23236  0.489173
 9696.64  11.7517  1.0  2.69808  2.23219  0.487823
 9696.89  11.7514  1  2.69782  2.23193  0.486578
 9697.14  11.7511  1.0  2.69755  2.23185  0.485484
 9697.39  11.7508  1  2.69748  2.23175  0.484562
 9697.64  11.7505  1.0  2.69733  2.23161  0.483754
 9697.89  11.7502  1  2.69706  2.23145  0.483074
 9698.14  11.7498  1.0  2.69683  2.23129  0.482486
 9698.39  11.7495  1  2.69659  2.23119  0.482052
 9698.64  11.7492  1.0  2.69634  2.231  0.481692
 9698.89  11.7489  1  2.69618  2.23085  0.481419
 9699.14  11.7486  1.0  2.69617  2.2309  0.481364
 9699.39  11.7483  1  2.69597  2.23073  0.481283
 9699.64  11.748  1.0  2.69561  2.23051  0.481329
 9699.89  11.7477  1  2.6954  2.23034  0.481573
 9700.14  11.7474  1.0  2.69522  2.23021  0.481822
 9700.39  11.7471  1  2.69511  2.23016  0.482265
 9700.64  11.7468  1.0  2.69482  2.22997  0.482809
 9700.89  11.7465  1  2.69451  2.22973  0.483555
 9701.14  11.7462  1.0  2.69428  2.22961  0.484441
 9701.39  11.7459  1  2.69417  2.22953  0.485482
 9701.64  11.7455  1.0  2.69395  2.22938  0.48671
 9701.89  11.7452  1  2.69371  2.2292  0.488101
 9702.14  11.7449  1.0  2.69344  2.22899  0.489588
 9702.39  11.7446  1  2.6932  2.22885  0.491228
 9702.64  11.7443  1.0  2.69314  2.22878  0.493035
 9702.89  11.744  1  2.69291  2.22861  0.494958
 9703.14  11.7437  1.0  2.69271  2.22845  0.496884
 9703.39  11.7434  1  2.69236  2.22828  0.498859
 9703.64  11.7431  1.0  2.69213  2.22813  0.500777
 9703.89  11.7428  1  2.69194  2.228  0.502713
 9704.14  11.7425  1.0  2.6917  2.22783  0.504574
 9704.39  11.7422  1  2.69154  2.22764  0.506393
 9704.64  11.7419  1.0  2.69113  2.22738  0.508075
 9704.89  11.7416  1  2.69084  2.22718  0.509674
 9705.14  11.7413  1.0  2.6904  2.22688  0.511198
 9705.39  11.7409  1  2.68998  2.22654  0.51258
 9705.64  11.7406  1.0  2.68945  2.22621  0.513871
 9705.89  11.7403  1  2.68901  2.22579  0.515121
 9706.14  11.74  1.0  2.68855  2.22559  0.516246
 9706.39  11.7397  1  2.68817  2.22519  0.517328
 9706.64  11.7394  1.0  2.68775  2.2249  0.51837
 9706.89  11.7391  1  2.68744  2.22463  0.519358
 9707.14  11.7388  1.0  2.68718  2.22448  0.520268
 9707.39  11.7385  1  2.6868  2.22418  0.521093
 9707.64  11.7382  1.0  2.68619  2.22377  0.521852
 9707.89  11.7379  1  2.68524  2.22298  0.522374
 9708.14  11.7376  1.0  2.68318  2.22131  0.522666
 9708.39  11.7373  4.0  2.67953  2.21831  0.522583
 9718.39  11.725  4  2.68908  2.2275  0.509676
 9728.39  11.7128  4.0  2.6826  2.22342  0.510004
 9738.39  11.7006  4  2.67628  2.21947  0.480117
 9748.39  11.6884  4.0  2.67005  2.21553  0.513246
 9758.39  11.6763  4  2.66442  2.21217  0.538658
 9768.39  11.6642  4.0  2.65723  2.2074  0.531253
 9778.38  11.6521  4  2.64967  2.20235  0.501036
 9788.38  11.64  4.0  2.60337  2.1651  0.488934
 9798.38  11.628  4  2.64095  2.19754  0.504811
 9808.38  11.6159  4.0  2.63421  2.19315  0.520627
 9818.38  11.6039  4  2.62796  2.18916  0.544699
 9828.38  11.592  4.0  2.61394  2.17871  0.534088
 9838.375  11.58  4  2.61416  2.18007  0.524345
 9848.37  11.5681  4.0  2.60891  2.17689  0.522384
 9858.37  11.5562  4  2.60282  2.17298  0.51825
 9868.37  11.5443  4.0  2.59676  2.16907  0.520747
 9878.37  11.5325  4  2.59072  2.16519  0.535519
 9888.37  11.5207  4.0  2.58469  2.16132  0.55143
 9898.37  11.5089  4  2.57861  2.1574  0.554174
 9908.37  11.4971  4.0  2.57246  2.1534  0.548674
 9918.36  11.4854  4  2.56631  2.14943  0.546952
 9928.36  11.4736  4.0  2.56019  2.1454  0.546918
 9938.36  11.4619  4  2.55388  2.14124  0.5476
 9948.36  11.4503  4.0  2.52805  2.12068  0.546285
 9958.36  11.4386  4  2.53998  2.13182  0.556397
 9968.36  11.427  4.0  2.53648  2.12998  0.566437
 9978.36  11.4154  4  2.47401  2.07857  0.558927
 9988.36  11.4038  4.0  2.4872  2.09077  0.565533
 9998.35  11.3922  4  2.51511  2.11531  0.574694
 10008.4  11.3807  4.0  2.51401  2.11545  0.576625
 10018.4  11.3692  4  2.50233  2.10669  0.575974
 10028.4  11.3577  4.0  2.50078  2.10642  0.57807
 10038.3  11.3462  4  2.49495  2.10257  0.58035
 10048.3  11.3348  4.0  2.489  2.09861  0.584803
 10058.3  11.3234  4  2.48313  2.09478  0.590445
 10068.3  11.312  4.0  2.47721  2.09079  0.594503
 10078.3  11.3006  4  2.47116  2.08672  0.597485
 10088.3  11.2893  4.0  2.46521  2.0827  0.60056
 10098.3  11.278  4  2.45932  2.0788  0.60329
 10108.3  11.2667  4.0  2.45333  2.07476  0.60529
 10118.3  11.2554  4  2.45319  2.07559  0.608327
 10128.3  11.2441  4.0  2.44719  2.07155  0.609933
 10138.3  11.2329  4  2.44122  2.06747  0.612022
 10148.3  11.2217  4.0  2.43528  2.06346  0.61466
 10158.3  11.2105  4  2.42934  2.05939  0.617975
 10168.3  11.1993  4.0  2.42333  2.05526  0.62135
 10178.3  11.1882  4  2.41688  2.05083  0.623917
 10188.3  11.1771  4.0  2.41143  2.0472  0.626813
 10198.3  11.166  4  2.40529  2.04295  0.629512
 10208.3  11.1549  4.0  2.39861  2.03819  0.631574
 10218.3  11.1438  4  2.39296  2.03428  0.633988
 10228.3  11.1328  4.0  2.38688  2.03013  0.636023
 10238.3  11.1218  4  2.38142  2.02643  0.638155
 10248.3  11.1108  4.0  2.37525  2.02214  0.640065
 10258.3  11.0998  4  2.36928  2.01795  0.642283
 10268.3  11.0889  4.0  2.36391  2.01428  0.644835
 10278.3  11.078  4  2.35684  2.0092  0.646881
 10288.3  11.0671  4.0  2.35232  2.00626  0.649785
 10298.3  11.0562  4  2.34639  2.00213  0.652159
 10308.3  11.0453  4.0  2.34049  1.99799  0.654537
 10318.3  11.0345  4  2.33474  1.99394  0.656895
 10328.3  11.0237  4.0  2.3289  1.98987  0.659157
 10338.3  11.0129  4  2.32312  1.98582  0.66121
 10348.3  11.0021  4.0  2.3173  1.98169  0.663124
 10358.3  10.9913  4  2.31157  1.97773  0.66528
 10368.3  10.9806  4.0  2.30581  1.97362  0.667228
 10378.3  10.9699  4  2.30002  1.96959  0.669152
 10388.3  10.9592  4.0  2.29431  1.96551  0.671169
 10398.3  10.9485  4  2.28852  1.96148  0.672984
 10408.3  10.9379  4.0  2.2828  1.95735  0.675
 10418.3  10.9273  4  2.27705  1.95329  0.677215
 10428.3  10.9167  4.0  2.27136  1.94923  0.679232
 10438.3  10.9061  4  2.26563  1.94515  0.681326
 10448.3  10.8955  4.0  2.25987  1.94107  0.683314
 10458.3  10.885  4  2.2542  1.93702  0.685353
 10468.3  10.8744  4.0  2.24852  1.93295  0.687406
 10478.3  10.8639  4  2.24283  1.92886  0.689067
 10488.3  10.8535  4.0  2.23709  1.92473  0.690833
 10498.3  10.843  4  2.23139  1.92066  0.692764
 10508.3  10.8326  4.0  2.22571  1.91658  0.694456
 10518.3  10.8221  4  2.22012  1.91257  0.696279
 10528.3  10.8117  4.0  2.21458  1.90854  0.698059
 10538.3  10.8013  4  2.21161  1.90678  0.700766
 10548.3  10.791  4.0  2.20851  1.90494  0.703335
 10558.3  10.7806  4  2.20321  1.90113  0.705244
 10568.3  10.7703  4.0  2.19254  1.89267  0.70542
 10578.3  10.76  4  2.19211  1.89308  0.708862
 10588.3  10.7497  4.0  2.18097  1.88423  0.708774
 10598.3  10.7395  4  2.18102  1.88498  0.712354
 10608.3  10.7292  4.0  2.17221  1.87814  0.712808
 10618.3  10.719  4  2.16949  1.87657  0.715392
 10628.3  10.7088  4.0  2.16386  1.87243  0.716887
 10638.3  10.6986  4  2.15827  1.86828  0.718617
 10648.3  10.6885  4.0  2.15261  1.86414  0.720298
 10658.3  10.6783  4  2.14208  1.85578  0.720207
 10668.3  10.6682  4.0  2.12953  1.84564  0.719249
 10678.3  10.6581  4  2.13094  1.84754  0.723193
 10688.3  10.648  4.0  2.1311  1.8484  0.726577
 10698.3  10.6379  4  2.12564  1.84433  0.728052
 10708.3  10.6279  4.0  2.12011  1.8403  0.72964
 10718.3  10.6179  4  2.11457  1.83623  0.731331
 10728.3  10.6078  4.0  2.10913  1.83219  0.732746
 10738.3  10.5979  4  2.1037  1.82816  0.734272
 10748.3  10.5879  4.0  2.09824  1.82414  0.735689
 10758.3  10.5779  4  2.0928  1.82009  0.73701
 10768.3  10.568  4.0  2.08736  1.81606  0.738413
 10778.2  10.5581  4  2.08192  1.81202  0.739797
 10788.2  10.5482  4.0  2.07646  1.8079  0.741234
 10798.2  10.5383  4  2.06483  1.79845  0.740334
 10808.2  10.5284  4.0  2.05719  1.79251  0.740793
 10818.2  10.5186  4  2.06095  1.79644  0.745594
 10828.2  10.5088  4.0  2.05529  1.79217  0.746669
 10838.2  10.499  4  2.04998  1.7882  0.748208
 10848.2  10.4892  4.0  2.04429  1.78392  0.749379
 10858.2  10.4794  4  2.03618  1.77741  0.749518
 10868.2  10.4697  4.0  2.03417  1.77636  0.751952
 10878.2  10.4599  4  2.0288  1.77224  0.753146
 10888.2  10.4502  4.0  2.02342  1.76825  0.754331