File: MEX1_29691_processed.xdi
# XDI/1.0
# Mono.d_spacing: 3.13897
# Reference.Element: Au
# ROI.start_bin: nan
# ROI.end_bin: nan
# Element.symbol: None
# Element.edge: None
# Processing.version: spec_processing_library v0.3.5
# Column.1: energy
# Column.2: bragg
# Column.3: count_time seconds
# Column.4: i0
# Column.5: i1
# Column.6: i2
# Describe.Column.1: energy - MEX1ES01ZEB01:CALC_ENERGY_EV
# Describe.Column.2: bragg - MEX1ES01ZEB01:BRAGG_WITH_OFFSET
# Describe.Column.3: count_time - MEX1ES01ZEB01:GATE_TIME_SET
# Describe.Column.4: i0 - MEX1ES01DAQ01:ch1:S:MeanValue_RBV
# Describe.Column.5: i1 - MEX1ES01DAQ01:ch2:S:MeanValue_RBV
# Describe.Column.6: i2 - MEX1ES01DAQ01:ch3:S:MeanValue_RBV
# Samples: [417, 417, 417, 417, 417, 417]
# ///
# Au foil
#
# xdi from default mda2xdi preset for mex1.
#--------
#  energy   bragg   count_time   i0   i1   i2
 11718.1  9.70271  1.0  3.31679  2.97722  3.13033
 11728.1  9.69433  1  3.30797  2.97011  3.12915
 11738.125  9.68599  1.0  3.29906  2.96281  3.12821
 11748.1  9.67767  1  3.28782  2.95345  3.12503
 11758.1  9.66937  1.0  3.27057  2.93876  3.11577
 11768.1  9.66107  1  3.27222  2.94096  3.12474
 11778.1  9.65279  1.0  3.26342  2.93405  3.12352
 11788.1  9.64452  1  3.25462  2.92683  3.12238
 11798.1  9.63627  1.0  3.24602  2.9197  3.12067
 11808.1  9.62803  1  3.23691  2.91247  3.11891
 11818.1  9.61981  1.0  3.21543  2.89376  3.10445
 11828.1  9.6116  1  3.2191  2.89786  3.11395
 11838.1  9.6034  1.0  3.21033  2.89075  3.11145
 11848.1  9.59522  1  3.20177  2.8836  3.10787
 11858.1  9.58706  1.0  3.17961  2.86459  3.0902
 11868.1  9.5789  1  3.18497  2.87007  3.09731
 11878.1  9.57076  1.0  3.17633  2.863  3.08724
 11888.1  9.56264  1  3.16756  2.8558  3.07104
 11898.1  9.55454  1.0  3.14823  2.83907  3.0282
 11898.3  9.55435  1  3.1436  2.83491  3.02281
 11898.6  9.55415  1.0  3.13785  2.82978  3.01628
 11898.8  9.55394  1  3.13137  2.82405  3.00892
 11899.1  9.55374  1.0  3.12639  2.81947  3.0031
 11899.3  9.55354  1  3.12426  2.81769  2.99972
 11899.6  9.55334  1.0  3.12469  2.81796  2.99921
 11899.8  9.55313  1  3.12605  2.81931  2.99932
 11900.1  9.55293  1.0  3.12799  2.82097  2.99977
 11900.3  9.55273  1  3.13062  2.82342  3.00098
 11900.6  9.55253  1.0  3.1347  2.8271  3.00363
 11900.8  9.55232  1  3.13994  2.83188  3.00726
 11901.1  9.55212  1.0  3.14515  2.83647  3.0108
 11901.3  9.55192  1  3.14875  2.83975  3.01289
 11901.6  9.55172  1.0  3.15064  2.84146  3.01319
 11901.8  9.55151  1  3.15153  2.84236  3.01232
 11902.1  9.55131  1.0  3.15189  2.84266  3.01134
 11902.3  9.55111  1  3.15214  2.84295  3.00989
 11902.6  9.5509  1.0  3.15196  2.84275  3.00816
 11902.8  9.5507  1  3.15182  2.84265  3.00608
 11903.1  9.5505  1.0  3.15159  2.84246  3.00408
 11903.3  9.5503  1  3.15135  2.8423  3.00178
 11903.6  9.5501  1.0  3.15102  2.84205  2.99951
 11903.8  9.54989  1  3.15068  2.84172  2.9972
 11904.1  9.54969  1.0  3.15023  2.84129  2.99449
 11904.3  9.54949  1  3.1497  2.84083  2.99188
 11904.6  9.54929  1.0  3.14879  2.83998  2.9889
 11904.8  9.54908  1  3.14749  2.83887  2.98525
 11905.1  9.54888  1.0  3.14541  2.83702  2.98097
 11905.3  9.54868  1  3.14277  2.83455  2.97591
 11905.6  9.54848  1.0  3.13898  2.83134  2.96989
 11905.8  9.54827  1  3.13423  2.82697  2.96257
 11906.1  9.54807  1.0  3.12812  2.8215  2.95374
 11906.3  9.54787  1  3.1217  2.81572  2.94491
 11906.6  9.54767  1.0  3.117  2.81147  2.93745
 11906.8  9.54747  1  3.11484  2.8095  2.93207
 11907.1  9.54726  1.0  3.11488  2.80942  2.92884
 11907.3  9.54706  1  3.11542  2.81015  2.92611
 11907.6  9.54686  1.0  3.12283  2.81692  2.92934
 11907.8  9.54666  1  3.12474  2.81853  2.92742
 11908.1  9.54645  1.0  3.12698  2.82065  2.92565
 11908.3  9.54625  1  3.12947  2.82287  2.92375
 11908.6  9.54605  1.0  3.12999  2.82331  2.91998
 11908.8  9.54585  1  3.12782  2.82141  2.91342
 11909.1  9.54564  1.0  3.12322  2.81733  2.9049
 11909.3  9.54544  1  3.11942  2.81375  2.89593
 11909.6  9.54524  1.0  3.11778  2.81236  2.88938
 11909.8  9.54504  1  3.11831  2.81296  2.88438
 11910.1  9.54484  1.0  3.11994  2.81433  2.88028
 11910.3  9.54463  1  3.12178  2.81605  2.87583
 11910.6  9.54443  1.0  3.12443  2.8186  2.87204
 11910.8  9.54423  1  3.12898  2.82267  2.86927
 11911.1  9.54403  1.0  3.13503  2.82807  2.86789
 11911.3  9.54383  1  3.14065  2.83309  2.8657
 11911.6  9.54362  1.0  3.1446  2.83666  2.86138
 11911.8  9.54342  1  3.14665  2.83862  2.85486
 11912.1  9.54322  1.0  3.14747  2.83943  2.84682
 11912.3  9.54302  1  3.14789  2.83975  2.83768
 11912.6  9.54281  1.0  3.14777  2.83973  2.82751
 11912.8  9.54261  1  3.14817  2.83994  2.81695
 11913.1  9.54241  1.0  3.14795  2.83996  2.80552
 11913.3  9.54221  1  3.14764  2.83966  2.7931
 11913.6  9.54201  1.0  3.14753  2.83949  2.77977
 11913.8  9.5418  1  3.14726  2.83923  2.766
 11914.1  9.5416  1.0  3.14682  2.83919  2.7508
 11914.3  9.5414  1  3.14661  2.83867  2.73463
 11914.6  9.5412  1.0  3.14594  2.83822  2.71692
 11914.8  9.54099  1  3.14487  2.83728  2.69779
 11915.1  9.54079  1.0  3.14392  2.83647  2.67741
 11915.3  9.54059  1  3.1423  2.83489  2.65457
 11915.6  9.54039  1.0  3.13991  2.83274  2.62956
 11915.8  9.54019  1  3.13678  2.83015  2.60234
 11916.1  9.53999  1.0  3.13274  2.82632  2.57193
 11916.3  9.53978  1  3.12722  2.82154  2.53862
 11916.6  9.53958  1.0  3.1211  2.81591  2.50213
 11916.8  9.53938  1  3.11554  2.81096  2.46374
 11917.1  9.53918  1.0  3.11244  2.80814  2.42485
 11917.3  9.53898  1  3.11211  2.80796  2.38525
 11917.6  9.53877  1.0  3.11344  2.80902  2.34394
 11917.8  9.53857  1  3.11513  2.81067  2.30018
 11918.1  9.53837  1.0  3.11749  2.81285  2.25388
 11918.3  9.53817  1  3.12107  2.81605  2.20661
 11918.6  9.53797  1.0  3.1261  2.82071  2.15765
 11918.8  9.53776  1  3.13139  2.82532  2.10728
 11919.1  9.53756  1.0  3.13545  2.82909  2.05462
 11919.3  9.53736  1  3.13803  2.83128  2.00014
 11919.6  9.53716  1.0  3.1391  2.83241  1.94455
 11919.8  9.53696  1  3.13969  2.8332  1.88992
 11920.1  9.53676  1.0  3.14008  2.83341  1.83637
 11920.3  9.53655  1  3.14023  2.83326  1.78548
 11920.6  9.53635  1.0  3.14011  2.83346  1.7374
 11920.8  9.53615  1  3.14001  2.83342  1.69295
 11921.1  9.53595  1.0  3.13995  2.83321  1.65215
 11921.3  9.53575  1  3.13971  2.83314  1.61547
 11921.6  9.53554  1.0  3.13964  2.83301  1.583
 11921.8  9.53534  1  3.13931  2.83273  1.55404
 11922.1  9.53514  1.0  3.13921  2.83275  1.52871
 11922.3  9.53494  1  3.13896  2.83247  1.50664
 11922.6  9.53474  1.0  3.13877  2.83232  1.48773
 11922.8  9.53453  1  3.13862  2.83207  1.4714
 11923.1  9.53433  1.0  3.13827  2.83199  1.45779
 11923.3  9.53413  1  3.138  2.83173  1.44657
 11923.6  9.53393  1.0  3.1378  2.83146  1.43726
 11923.8  9.53373  1  3.1377  2.83126  1.42976
 11924.1  9.53353  1.0  3.13715  2.83112  1.42425
 11924.3  9.53333  1  3.13705  2.8308  1.41989
 11924.6  9.53312  1.0  3.13686  2.83064  1.41681
 11924.8  9.53292  1  3.13646  2.83043  1.41485
 11925.1  9.53272  1.0  3.13622  2.83014  1.41372
 11925.3  9.53252  1  3.13586  2.82992  1.41294
 11925.6  9.53232  1.0  3.1358  2.82986  1.41276
 11925.8  9.53211  1  3.13559  2.82967  1.41266
 11926.1  9.53191  1.0  3.13535  2.82941  1.41258
 11926.3  9.53171  1  3.13503  2.82914  1.41229
 11926.6  9.53151  1.0  3.13478  2.82896  1.41183
 11926.8  9.53131  1  3.13448  2.82883  1.41079
 11927.1  9.53111  1.0  3.13419  2.82854  1.4094
 11927.3  9.5309  1  3.13375  2.8281  1.40743
 11927.6  9.5307  1.0  3.13359  2.82803  1.405
 11927.8  9.5305  1  3.1334  2.82775  1.40198
 11928.1  9.5303  1.0  3.13299  2.82756  1.39832
 11928.3  9.5301  1  3.13275  2.82733  1.39422
 11928.6  9.5299  1.0  3.13253  2.82712  1.3895
 11928.8  9.52969  1  3.13221  2.82688  1.38434
 11929.1  9.52949  1.0  3.13206  2.82675  1.37877
 11929.3  9.52929  1  3.13168  2.82648  1.37265
 11929.6  9.52909  1.0  3.13143  2.82626  1.36663
 11929.8  9.52889  1  3.13123  2.82614  1.36001
 11930.1  9.52869  1.0  3.1309  2.82585  1.35321
 11930.3  9.52849  1  3.13068  2.8256  1.34657
 11930.6  9.52829  1.0  3.13048  2.82527  1.33985
 11930.8  9.52808  1  3.12998  2.82514  1.33322
 11931.1  9.52788  1.0  3.1298  2.82486  1.32676
 11931.3  9.52768  1  3.12949  2.82452  1.32041
 11931.6  9.52748  1.0  3.12919  2.82441  1.31448
 11931.8  9.52728  1  3.12895  2.82408  1.30871
 11932.1  9.52708  1.0  3.12875  2.82391  1.30344
 11932.3  9.52687  1  3.12839  2.82371  1.29836
 11932.6  9.52667  1.0  3.1282  2.82341  1.29387
 11932.8  9.52647  1  3.12788  2.82325  1.28974
 11933.1  9.52627  1.0  3.12774  2.82313  1.28596
 11933.3  9.52607  1  3.12752  2.82292  1.2825
 11933.6  9.52587  1.0  3.12713  2.82274  1.27947
 11933.8  9.52567  1  3.12683  2.82242  1.27679
 11934.1  9.52547  1.0  3.1265  2.82227  1.27431
 11934.3  9.52526  1  3.12629  2.82192  1.27235
 11934.6  9.52506  1.0  3.126  2.8216  1.27055
 11934.8  9.52486  1  3.12565  2.82145  1.26896
 11935.1  9.52466  1.0  3.12529  2.82125  1.26756
 11935.3  9.52446  1  3.12516  2.82086  1.26624
 11935.6  9.52426  1.0  3.12501  2.82067  1.26508
 11935.8  9.52406  1  3.12472  2.82065  1.26384
 11936.1  9.52385  1.0  3.12431  2.82028  1.26268
 11936.3  9.52365  1  3.12405  2.82  1.26124
 11936.6  9.52345  1.0  3.12368  2.81976  1.25976
 11936.8  9.52325  1  3.12349  2.81964  1.2582
 11937.1  9.52305  1.0  3.12326  2.81939  1.25645
 11937.3  9.52285  1  3.12293  2.81907  1.25434
 11937.6  9.52265  1.0  3.12428  2.82035  1.25281
 11937.8  9.52245  1  3.13018  2.82559  1.25284
 11938.1  9.52224  1.0  3.12977  2.82535  1.2505
 11938.3  9.52204  1  3.12963  2.82511  1.24801
 11938.6  9.52184  1.0  3.12936  2.82482  1.24547
 11938.8  9.52164  1  3.12908  2.82471  1.24311
 11939.1  9.52144  1.0  3.12868  2.82441  1.24069
 11939.3  9.52124  1  3.12852  2.82419  1.23829
 11939.6  9.52104  1.0  3.12816  2.82406  1.23608
 11939.8  9.52084  1  3.12793  2.82378  1.23392
 11940.1  9.52063  1.0  3.12761  2.82352  1.23169
 11940.3  9.52043  1  3.12718  2.82318  1.22916
 11940.6  9.52023  1.0  3.12717  2.82311  1.22659
 11940.8  9.52003  1  3.12686  2.82292  1.2235
 11941.1  9.51983  1.0  3.12648  2.82259  1.22009
 11941.3  9.51963  1  3.12624  2.82234  1.2161
 11941.6  9.51943  1.0  3.126  2.82226  1.21143
 11941.8  9.51923  1  3.1258  2.82202  1.20608
 11942.1  9.51902  1.0  3.12548  2.82172  1.20002
 11942.3  9.51882  1  3.12522  2.82156  1.19322
 11942.6  9.51862  1.0  3.12494  2.82134  1.18565
 11942.8  9.51842  1  3.1247  2.82109  1.17724
 11943.1  9.51822  1.0  3.12455  2.82084  1.16839
 11943.3  9.51802  1  3.12419  2.82061  1.15901
 11943.6  9.51782  1.0  3.12389  2.8203  1.1494
 11943.8  9.51762  1  3.12359  2.82004  1.13933
 11944.1  9.51742  1.0  3.12338  2.81988  1.12951
 11944.3  9.51722  1  3.123  2.81956  1.11958
 11944.6  9.51702  1.0  3.12268  2.81936  1.11017
 11944.8  9.51681  1  3.12225  2.81889  1.10109
 11945.1  9.51661  1.0  3.12218  2.81893  1.09284
 11945.3  9.51641  1  3.12206  2.81871  1.08533
 11945.6  9.51621  1.0  3.12154  2.81834  1.07853
 11945.8  9.51601  1  3.12142  2.81833  1.07302
 11946.1  9.51581  1.0  3.12114  2.81814  1.06854
 11946.3  9.51561  1  3.12084  2.8178  1.06519
 11946.6  9.51541  1.0  3.12056  2.81757  1.06281
 11946.8  9.51521  1  3.12029  2.81743  1.06179
 11947.1  9.515  1.0  3.12007  2.8172  1.06177
 11947.3  9.5148  1  3.11939  2.81659  1.06256
 11947.6  9.5146  1.0  3.11964  2.81678  1.06465
 11947.8  9.5144  1  3.11924  2.81648  1.06756
 11948.1  9.5142  1.0  3.1185  2.8159  1.07119
 11948.3  9.514  1  3.1185  2.81601  1.07553
 11948.6  9.5138  1.0  3.11841  2.8157  1.08043
 11948.8  9.5136  1  3.11806  2.81553  1.08585
 11949.1  9.5134  1.0  3.11777  2.81527  1.09137
 11949.3  9.5132  1  3.11743  2.81509  1.09727
 11949.6  9.513  1.0  3.11723  2.81469  1.1033
 11949.8  9.51279  1  3.11689  2.81457  1.10918
 11950.1  9.5126  1.0  3.11665  2.81432  1.11497
 11950.3  9.51239  1  3.11617  2.81398  1.12061
 11950.6  9.51219  1.0  3.11614  2.81389  1.12596
 11950.8  9.51199  1  3.11581  2.81364  1.13103
 11951.1  9.51179  1.0  3.11554  2.81339  1.13546
 11951.3  9.51159  1  3.11522  2.81316  1.13971
 11951.6  9.51139  1.0  3.11513  2.81293  1.14329
 11951.8  9.51119  1  3.1148  2.81267  1.14647
 11952.1  9.51099  1.0  3.11447  2.81251  1.14912
 11952.3  9.51079  1  3.11428  2.81242  1.15127
 11952.6  9.51059  1.0  3.11401  2.81215  1.15323
 11952.8  9.51039  1  3.11365  2.81179  1.15475
 11953.1  9.51019  1.0  3.11331  2.81158  1.15594
 11953.3  9.50998  1  3.11306  2.8113  1.15677
 11953.6  9.50978  1.0  3.11275  2.81113  1.15754
 11953.8  9.50958  1  3.11251  2.81084  1.15819
 11954.1  9.50938  1.0  3.11222  2.81076  1.15888
 11954.3  9.50918  1  3.11173  2.81004  1.15934
 11954.6  9.50898  1.0  3.11179  2.81012  1.16013
 11954.8  9.50878  1  3.11145  2.80986  1.16095
 11955.1  9.50858  1.0  3.11104  2.80957  1.16177
 11955.3  9.50838  1  3.11089  2.80949  1.16279
 11955.6  9.50818  1.0  3.11062  2.80925  1.16395
 11955.8  9.50798  1  3.11028  2.80889  1.16512
 11956.1  9.50778  1.0  3.11005  2.80885  1.16637
 11956.3  9.50758  1  3.10987  2.80861  1.16778
 11956.6  9.50738  1.0  3.10961  2.80834  1.16924
 11956.8  9.50718  1  3.10944  2.80824  1.17062
 11957.1  9.50697  1.0  3.10911  2.80787  1.17183
 11957.3  9.50677  1  3.10878  2.80769  1.17302
 11957.6  9.50657  1.0  3.10858  2.80758  1.17412
 11957.8  9.50637  1  3.10817  2.80725  1.17498
 11958.1  9.50617  1.0  3.10808  2.807  1.17569
 11958.3  9.50597  1  3.10786  2.80676  1.17595
 11958.6  9.50577  1.0  3.10745  2.80658  1.17616
 11958.8  9.50557  1  3.10657  2.80597  1.17571
 11959.1  9.50537  1.0  3.10691  2.80617  1.17563
 11959.3  9.50517  1  3.1067  2.80595  1.17486
 11959.6  9.50497  1.0  3.10633  2.8058  1.17367
 11959.8  9.50477  1  3.10613  2.80541  1.17236
 11960.1  9.50457  1.0  3.10577  2.805  1.17064
 11960.3  9.50437  1  3.10532  2.80487  1.16872
 11960.6  9.50417  1.0  3.10512  2.80465  1.16651
 11960.8  9.50397  1  3.10467  2.80434  1.16408
 11961.1  9.50377  1.0  3.10455  2.80418  1.16134
 11961.3  9.50357  1  3.10436  2.80392  1.15851
 11961.6  9.50337  1.0  3.10416  2.80377  1.15541
 11961.8  9.50317  1  3.10386  2.80354  1.15235
 11962.1  9.50297  1.0  3.1036  2.80343  1.14906
 11962.3  9.50276  1  3.10339  2.80312  1.14558
 11962.6  9.50256  1.0  3.10304  2.80294  1.14207
 11962.8  9.50236  1  3.10275  2.80257  1.13833
 11963.1  9.50216  1.0  3.10255  2.80241  1.13477
 11963.3  9.50196  1  3.10206  2.80216  1.13112
 11963.6  9.50176  1.0  3.10185  2.80193  1.12727
 11963.8  9.50156  1  3.1015  2.80167  1.12342
 11964.1  9.50136  1.0  3.10125  2.80136  1.11967
 11964.3  9.50116  1  3.10114  2.80133  1.11598
 11964.6  9.50096  1.0  3.10074  2.80098  1.11231
 11964.8  9.50076  1  3.10047  2.80092  1.10863
 11965.1  9.50056  1.0  3.1003  2.8006  1.10489
 11965.3  9.50036  1  3.10013  2.80048  1.10138
 11965.6  9.50016  1.0  3.09991  2.80023  1.0978
 11965.8  9.49996  1  3.09964  2.80007  1.09453
 11966.1  9.49976  1.0  3.09942  2.79973  1.09108
 11966.3  9.49956  1  3.09888  2.79946  1.08779
 11966.6  9.49936  1.0  3.09864  2.79921  1.08475
 11966.8  9.49916  1  3.09831  2.79887  1.08169
 11967.1  9.49896  1.0  3.09795  2.79862  1.07888
 11967.3  9.49876  1  3.09774  2.79836  1.07617
 11967.6  9.49856  1.0  3.09749  2.79827  1.07361
 11967.8  9.49836  1  3.09722  2.79802  1.07144
 11968.1  9.49816  1.0  3.09704  2.79773  1.06932
 11978.1  9.49013  1  3.08855  2.79079  1.1083
 11988.1  9.48215  1.0  3.08615  2.78936  1.15127
 11998.1  9.47417  1  3.07921  2.78379  1.15459
 12008.1  9.46622  1.0  3.0707  2.77681  1.10862
 12018.1  9.45826  1  3.0622  2.76982  1.124
 12028.1  9.45033  1.0  3.05379  2.76283  1.12751
 12038.1  9.44242  1  3.04518  2.75579  1.13739
 12048.1  9.4345  1.0  3.01406  2.72814  1.14569
 12058.1  9.42661  1  3.02756  2.74101  1.14276
 12068.1  9.41872  1.0  3.01935  2.73431  1.1296
 12078.1  9.41087  1  3.01098  2.72733  1.12506
 12088.1  9.403  1.0  3.00267  2.72042  1.12315
 12098.1  9.39516  1  2.99422  2.71341  1.12347
 12108.1  9.38735  1.0  2.98579  2.7064  1.14118
 12118.1  9.37952  1  2.9773  2.69929  1.14575
 12128.1  9.37171  1.0  2.96944  2.6929  1.14234
 12138.1  9.36393  1  2.96069  2.68553  1.12949
 12148.1  9.35615  1.0  2.94421  2.67129  1.11282
 12158.1  9.34839  1  2.94487  2.67247  1.11911
 12168.1  9.34063  1.0  2.93716  2.66597  1.13457
 12178.1  9.3329  1  2.92876  2.65903  1.14461
 12188  9.32519  1.0  2.92012  2.65187  1.1409
 12198.1  9.31746  1  2.91129  2.64433  1.14202
 12208.1  9.30976  1.0  2.90223  2.6367  1.13728
 12218.1  9.30208  1  2.89286  2.62891  1.12829
 12228  9.29442  1.0  2.88337  2.62075  1.12468
 12238  9.28674  1  2.87366  2.61257  1.1326
 12248  9.27909  1.0  2.8638  2.6042  1.1409
 12258  9.27147  1  2.85001  2.59216  1.14003
 12268  9.26383  1.0  2.83415  2.57834  1.13658
 12278  9.25623  1  2.76767  2.51841  1.1138
 12288  9.24863  1.0  2.82207  2.56843  1.13723
 12298  9.24106  1  2.81427  2.56194  1.13358
 12308  9.23347  1.0  2.80622  2.55517  1.1321
 12318  9.22591  1  2.79745  2.54767  1.13223
 12328  9.21836  1.0  2.78882  2.54024  1.13697
 12338  9.21084  1  2.78054  2.53352  1.14316
 12348  9.2033  1.0  2.77261  2.52685  1.14509
 12358  9.19579  1  2.76036  2.51607  1.14196
 12368  9.1883  1.0  2.75754  2.51412  1.14227
 12378  9.18082  1  2.74952  2.50715  1.14062
 12388  9.17334  1.0  2.74102  2.50016  1.14003
 12398  9.16587  1  2.73289  2.49329  1.13989
 12408  9.15843  1.0  2.72453  2.48598  1.14146
 12418  9.151  1  2.71369  2.47668  1.14272
 12428  9.14357  1.0  2.70658  2.4707  1.14559
 12438  9.13615  1  2.69998  2.46527  1.14861
 12448  9.12875  1.0  2.69089  2.45745  1.14957
 12458  9.12137  1  2.67669  2.44497  1.14691
 12468  9.11399  1.0  2.67458  2.44364  1.1488
 12478  9.10662  1  2.66864  2.43865  1.14859
 12488  9.09927  1.0  2.64089  2.41372  1.13948
 12498  9.09193  1  2.65316  2.42563  1.14802
 12508  9.0846  1.0  2.64529  2.41873  1.14899
 12518  9.07728  1  2.63741  2.41218  1.15066
 12528  9.06997  1.0  2.62945  2.40546  1.15266
 12538  9.06269  1  2.6217  2.39864  1.1543
 12548  9.0554  1.0  2.61375  2.39187  1.15576
 12558  9.04813  1  2.60588  2.38526  1.15687
 12568  9.04087  1.0  2.59792  2.37849  1.15744
 12578  9.03363  1  2.59006  2.37158  1.15721
 12588  9.02639  1.0  2.5821  2.36477  1.15631
 12598  9.01917  1  2.5732  2.35717  1.15511
 12608  9.01195  1.0  2.56544  2.35054  1.155
 12618  9.00475  1  2.55773  2.3439  1.15572
 12628  8.99757  1.0  2.548  2.33553  1.15595
 12638  8.99039  1  2.5416  2.33011  1.15804
 12648  8.98322  1.0  2.53343  2.32306  1.15903
 12658  8.97607  1  2.52528  2.31603  1.15988
 12668  8.96892  1.0  2.51734  2.30914  1.16066
 12678  8.96179  1  2.50926  2.30223  1.16129
 12688  8.95467  1.0  2.50125  2.29532  1.16153
 12698  8.94756  1  2.4933  2.2884  1.16166
 12708  8.94047  1.0  2.48528  2.28156  1.16142
 12718  8.93338  1  2.47729  2.27471  1.16126
 12728  8.9263  1.0  2.46906  2.26768  1.16087
 12738  8.91924  1  2.45715  2.25695  1.1588
 12748  8.91219  1.0  2.45401  2.2546  1.16144
 12758  8.90515  1  2.44622  2.24765  1.16189
 12768  8.89812  1.0  2.43822  2.241  1.16261
 12778  8.8911  1  2.43047  2.23418  1.16331
 12788  8.88409  1.0  2.42268  2.22756  1.16421
 12798  8.87709  1  2.4149  2.22065  1.16462
 12807.9  8.87011  1.0  2.40694  2.21388  1.16503
 12817.9  8.86313  1  2.39908  2.20694  1.16523
 12827.9  8.85617  1.0  2.391  2.19989  1.16521
 12837.9  8.84922  1  2.38263  2.1926  1.16484
 12847.9  8.84227  1.0  2.37256  2.1838  1.16359
 12857.9  8.83534  1  2.36642  2.17865  1.16429
 12867.9  8.82842  1.0  2.35926  2.17229  1.16443
 12877.9  8.82152  1  2.35145  2.16556  1.16448
 12887.9  8.81462  1.0  2.3435  2.15866  1.16452
 12897.9  8.80773  1  2.3354  2.15161  1.16454
 12907.9  8.80085  1.0  2.32708  2.14431  1.16453
 12917.9  8.79399  1  2.31919  2.13745  1.16467
 12927.9  8.78714  1.0  2.30405  2.12391  1.16124
 12937.9  8.78029  1  2.29919  2.11967  1.16273
 12947.9  8.77345  1.0  2.2965  2.11757  1.16546
 12957.9  8.76663  1  2.28723  2.10944  1.16473
 12967.9  8.75982  1.0  2.27874  2.10191  1.16408
 12977.9  8.75302  1  2.27283  2.09681  1.16497
 12987.9  8.74623  1.0  2.26496  2.09011  1.16479
 12997.9  8.73945  1  2.25726  2.08327  1.16447
 13007.9  8.73268  1.0  2.2494  2.07643  1.16414
 13017.9  8.72592  1  2.24145  2.06945  1.16384
 13027.9  8.71917  1.0  2.23355  2.06231  1.16361
 13037.9  8.71243  1  2.22561  2.05544  1.16329
 13047.9  8.7057  1.0  2.21766  2.04846  1.16285
 13057.9  8.69898  1  2.20955  2.04134  1.16249
 13067.9  8.69228  1.0  2.20079  2.03361  1.16185
 13077.9  8.68558  1  2.19293  2.02665  1.16148
 13087.9  8.67889  1.0  2.18545  2.02007  1.16152
 13097.9  8.67222  1  2.17727  2.013  1.16107
 13107.9  8.66555  1.0  2.16936  2.00601  1.16072
 13117.9  8.65889  1  2.16149  1.99897  1.16028
 13127.9  8.65225  1.0  2.15317  1.99165  1.1597
 13137.9  8.64562  1  2.14558  1.98487  1.15913
 13147.9  8.63899  1.0  2.1376  1.97784  1.15852