File: MEX1_29692_processed.xdi
# XDI/1.0
# Mono.d_spacing: 3.13897
# Reference.Element: Pt
# ROI.start_bin: nan
# ROI.end_bin: nan
# Element.symbol: None
# Element.edge: None
# Processing.version: spec_processing_library v0.3.5
# Column.1: energy
# Column.2: bragg
# Column.3: count_time seconds
# Column.4: i0
# Column.5: i1
# Column.6: i2
# Describe.Column.1: energy - MEX1ES01ZEB01:CALC_ENERGY_EV
# Describe.Column.2: bragg - MEX1ES01ZEB01:BRAGG_WITH_OFFSET
# Describe.Column.3: count_time - MEX1ES01ZEB01:GATE_TIME_SET
# Describe.Column.4: i0 - MEX1ES01DAQ01:ch1:S:MeanValue_RBV
# Describe.Column.5: i1 - MEX1ES01DAQ01:ch2:S:MeanValue_RBV
# Describe.Column.6: i2 - MEX1ES01DAQ01:ch3:S:MeanValue_RBV
# Samples: [417, 417, 417, 417, 417, 417]
# ///
# Pt foil
#
# xdi from default mda2xdi preset for mex1.
#--------
#  energy   bragg   count_time   i0   i1   i2
 11363.1  10.0089  1  3.57193  3.174  2.6271
 11373.2  9.99995  1.0  3.63944  3.23516  2.68482
 11383.2  9.99107  1  3.62935  3.22707  2.68566
 11393.2  9.98221  1.0  3.61452  3.2148  2.68269
 11403.2  9.97337  1  3.61063  3.21221  2.68734
 11413.2  9.96454  1.0  3.59825  3.2022  2.68553
 11423.2  9.95573  1  3.58786  3.19394  2.6858
 11433.2  9.94694  1.0  3.57808  3.18607  2.68605
 11443.2  9.93816  1  3.56823  3.1784  2.68643
 11453.2  9.92939  1.0  3.55877  3.17077  2.68663
 11463.2  9.92065  1  3.54945  3.1633  2.68672
 11473.2  9.91191  1.0  3.54006  3.15594  2.6863
 11483.2  9.90319  1  3.53079  3.14863  2.68527
 11493.2  9.89449  1.0  3.52137  3.1413  2.68336
 11503.2  9.88581  1  3.51226  3.13387  2.67986
 11513.2  9.87713  1.0  3.503  3.12661  2.67362
 11523.2  9.86848  1  3.49383  3.11921  2.66228
 11533.2  9.85984  1.0  3.48461  3.11195  2.6398
 11543.2  9.85121  1  3.4752  3.10424  2.58615
 11543.4  9.85102  1.0  3.47498  3.10407  2.58392
 11543.6  9.8508  1  3.47466  3.10395  2.58187
 11543.9  9.85059  1.0  3.47444  3.10372  2.57944
 11544.1  9.85037  1  3.47422  3.1035  2.57699
 11544.4  9.85016  1.0  3.47371  3.10323  2.57457
 11544.6  9.84994  1  3.47354  3.10286  2.57181
 11544.9  9.84973  1.0  3.47331  3.10284  2.56906
 11545.1  9.84951  1  3.47278  3.10228  2.56633
 11545.4  9.8493  1.0  3.47243  3.10216  2.56352
 11545.6  9.84908  1  3.47215  3.10191  2.56072
 11545.9  9.84886  1.0  3.47212  3.10177  2.5578
 11546.1  9.84865  1  3.47169  3.10146  2.55455
 11546.4  9.84843  1.0  3.47155  3.10128  2.55142
 11546.6  9.84822  1  3.47132  3.10119  2.54821
 11546.9  9.848  1.0  3.47093  3.10077  2.54464
 11547.1  9.84779  1  3.47052  3.10041  2.5411
 11547.4  9.84757  1.0  3.47026  3.10035  2.5373
 11547.6  9.84736  1  3.47003  3.10013  2.53344
 11547.9  9.84714  1.0  3.4699  3.1  2.52974
 11548.1  9.84693  1  3.46951  3.0996  2.5255
 11548.4  9.84671  1.0  3.46903  3.09943  2.52133
 11548.6  9.8465  1  3.46881  3.09923  2.51686
 11548.9  9.84628  1.0  3.46863  3.09883  2.51209
 11549.1  9.84607  1  3.46806  3.09863  2.50744
 11549.4  9.84585  1.0  3.46794  3.09843  2.50257
 11549.6  9.84563  1  3.46764  3.09823  2.49736
 11549.9  9.84542  1.0  3.46735  3.09791  2.49204
 11550.1  9.8452  1  3.46714  3.0978  2.48651
 11550.4  9.84499  1.0  3.46687  3.09756  2.48056
 11550.6  9.84477  1  3.46652  3.09735  2.47434
 11550.9  9.84456  1.0  3.46628  3.0971  2.46779
 11551.1  9.84434  1  3.46595  3.09684  2.46138
 11551.4  9.84413  1.0  3.46544  3.09645  2.45426
 11551.6  9.84391  1  3.46521  3.09614  2.44702
 11551.9  9.8437  1.0  3.46486  3.09595  2.43941
 11552.1  9.84348  1  3.46465  3.09568  2.4312
 11552.4  9.84327  1.0  3.46419  3.09543  2.42274
 11552.6  9.84305  1  3.46397  3.09518  2.41414
 11552.9  9.84284  1.0  3.46384  3.09503  2.40495
 11553.1  9.84262  1  3.4635  3.09469  2.39522
 11553.4  9.84241  1.0  3.46314  3.09444  2.38512
 11553.6  9.84219  1  3.46286  3.09423  2.37427
 11553.9  9.84198  1.0  3.46265  3.09387  2.36302
 11554.1  9.84176  1  3.46214  3.0936  2.35114
 11554.4  9.84155  1.0  3.46192  3.09342  2.33858
 11554.6  9.84133  1  3.46152  3.09319  2.32531
 11554.9  9.84112  1.0  3.4612  3.09298  2.31148
 11555.1  9.8409  1  3.46092  3.09267  2.29649
 11555.4  9.84069  1.0  3.46079  3.09242  2.28094
 11555.6  9.84047  1  3.46044  3.09216  2.26429
 11555.9  9.84026  1.0  3.4602  3.09199  2.24645
 11556.1  9.84004  1  3.46006  3.0918  2.22772
 11556.4  9.83983  1.0  3.45959  3.09163  2.20775
 11556.6  9.83961  1  3.4593  3.09137  2.18622
 11556.9  9.8394  1.0  3.45897  3.09123  2.1631
 11557.1  9.83918  1  3.45869  3.09093  2.13881
 11557.4  9.83897  1.0  3.45827  3.09068  2.11262
 11557.6  9.83875  1  3.4582  3.09039  2.08436
 11557.9  9.83854  1.0  3.45793  3.09009  2.05426
 11558.1  9.83832  1  3.45771  3.08995  2.02209
 11558.4  9.83811  1.0  3.45715  3.08969  1.98752
 11558.6  9.83789  1  3.45699  3.08942  1.95086
 11558.9  9.83768  1.0  3.45669  3.08933  1.91078
 11559.1  9.83746  1  3.45634  3.08891  1.86788
 11559.4  9.83725  1.0  3.4561  3.08875  1.82212
 11559.6  9.83703  1  3.4558  3.08855  1.77238
 11559.9  9.83682  1.0  3.45561  3.0885  1.71979
 11560.1  9.8366  1  3.45536  3.08813  1.66331
 11560.4  9.83639  1.0  3.45501  3.08782  1.60356
 11560.6  9.83617  1  3.46254  3.09476  1.54345
 11560.9  9.83596  1.0  3.46243  3.09436  1.47632
 11561.1  9.83574  1  3.46202  3.0942  1.40645
 11561.4  9.83553  1.0  3.46172  3.09388  1.33348
 11561.6  9.83531  1  3.46142  3.09369  1.25858
 11561.9  9.8351  1.0  3.46107  3.0935  1.18172
 11562.1  9.83489  1  3.46079  3.09317  1.10566
 11562.4  9.83467  1.0  3.46054  3.09304  1.02951
 11562.6  9.83446  1  3.46008  3.09269  0.955692
 11562.9  9.83424  1.0  3.45984  3.09239  0.884587
 11563.1  9.83403  1  3.45959  3.09215  0.818984
 11563.4  9.83381  1.0  3.45934  3.09204  0.758656
 11563.6  9.8336  1  3.45898  3.09172  0.704906
 11563.9  9.83338  1.0  3.45868  3.09142  0.658688
 11564.1  9.83317  1  3.45835  3.09114  0.619634
 11564.4  9.83295  1.0  3.4579  3.09081  0.588192
 11564.6  9.83274  1  3.45759  3.09072  0.563874
 11564.9  9.83252  1.0  3.45742  3.09047  0.546824
 11565.1  9.83231  1  3.45708  3.09026  0.535649
 11565.4  9.83209  1.0  3.45694  3.08997  0.530168
 11565.6  9.83188  1  3.45666  3.08979  0.529134
 11565.9  9.83167  1.0  3.45632  3.08949  0.532124
 11566.1  9.83145  1  3.45605  3.08931  0.538336
 11566.4  9.83124  1.0  3.45582  3.08907  0.546728
 11566.6  9.83102  1  3.45533  3.08884  0.557206
 11566.9  9.83081  1.0  3.45517  3.08875  0.568993
 11567.1  9.83059  1  3.45491  3.08846  0.581408
 11567.4  9.83038  1.0  3.45462  3.08828  0.594584
 11567.6  9.83016  1  3.45425  3.08776  0.607728
 11567.9  9.82995  1.0  3.45391  3.08748  0.620954
 11568.1  9.82973  1  3.45355  3.08721  0.633845
 11568.4  9.82952  1.0  3.45321  3.08709  0.646375
 11568.6  9.82931  1  3.45297  3.0869  0.658454
 11568.9  9.82909  1.0  3.45272  3.08649  0.669923
 11569.1  9.82888  1  3.45248  3.0863  0.680508
 11569.4  9.82866  1.0  3.45224  3.08625  0.690457
 11569.6  9.82845  1  3.45194  3.08604  0.699661
 11569.9  9.82823  1.0  3.45163  3.08578  0.708382
 11570.1  9.82802  1  3.45127  3.08545  0.716585
 11570.4  9.82781  1.0  3.45106  3.08525  0.723987
 11570.6  9.82759  1  3.45069  3.08488  0.731294
 11570.9  9.82738  1.0  3.45038  3.08475  0.738222
 11571.1  9.82716  1  3.4502  3.08444  0.744948
 11571.4  9.82695  1.0  3.44981  3.08426  0.751303
 11571.6  9.82673  1  3.44953  3.08405  0.757406
 11571.9  9.82652  1.0  3.44928  3.08379  0.763227
 11572.1  9.8263  1  3.44899  3.08346  0.768715
 11572.4  9.82609  1.0  3.44871  3.08318  0.77384
 11572.6  9.82588  1  3.44845  3.08312  0.778525
 11572.9  9.82566  1.0  3.44812  3.08284  0.782819
 11573.1  9.82545  1  3.44804  3.0825  0.786514
 11573.4  9.82523  1.0  3.44757  3.08246  0.789751
 11573.625  9.82502  1  3.44729  3.08221  0.792324
 11573.9  9.8248  1.0  3.44693  3.08186  0.794285
 11574.125  9.82459  1  3.44671  3.08161  0.795597
 11574.4  9.82438  1.0  3.44631  3.08131  0.796464
 11574.625  9.82416  1  3.44594  3.08102  0.796484
 11574.9  9.82395  1.0  3.4457  3.08074  0.796083
 11575.1  9.82373  1  3.44549  3.08063  0.795156
 11575.4  9.82352  1.0  3.44521  3.08036  0.793648
 11575.625  9.8233  1  3.44497  3.08025  0.791577
 11575.9  9.82309  1.0  3.44476  3.08007  0.789117
 11576.125  9.82288  1  3.44444  3.0797  0.786302
 11576.4  9.82266  1.0  3.44402  3.07943  0.783171
 11576.625  9.82245  1  3.4436  3.07914  0.779821
 11576.9  9.82223  1.0  3.44343  3.07908  0.776244
 11577.1  9.82202  1  3.44308  3.07865  0.772595
 11577.375  9.82181  1.0  3.44281  3.07844  0.768949
 11577.6  9.82159  1  3.44245  3.07823  0.765543
 11577.875  9.82138  1.0  3.44227  3.07797  0.762036
 11578.1  9.82116  1  3.44175  3.07783  0.758997
 11578.375  9.82095  1.0  3.44167  3.07741  0.75621
 11578.6  9.82073  1  3.44128  3.07724  0.753799
 11578.9  9.82052  1.0  3.44109  3.07704  0.752032
 11579.1  9.82031  1  3.44073  3.07676  0.750745
 11579.4  9.82009  1.0  3.44043  3.07655  0.749983
 11579.625  9.81988  1  3.44021  3.07638  0.749833
 11579.9  9.81966  1.0  3.43988  3.07618  0.750469
 11580.125  9.81945  1  3.43966  3.07593  0.751681
 11580.4  9.81924  1.0  3.43926  3.07568  0.753642
 11580.625  9.81902  1  3.43903  3.07532  0.756061
 11580.875  9.81881  1.0  3.43866  3.07509  0.759189
 11581.1  9.81859  1  3.43833  3.07485  0.762771
 11581.4  9.81838  1.0  3.43819  3.07476  0.766638
 11581.625  9.81817  1  3.43795  3.07461  0.770987
 11581.9  9.81795  1.0  3.43786  3.07433  0.775258
 11582.125  9.81774  1  3.4373  3.07401  0.779611
 11582.4  9.81752  1.0  3.43706  3.07379  0.783929
 11582.6  9.81731  1  3.43685  3.07353  0.787956
 11582.875  9.81709  1.0  3.43644  3.07326  0.791684
 11583.1  9.81688  1  3.43623  3.07309  0.794925
 11583.375  9.81667  1.0  3.43585  3.07281  0.797765
 11583.625  9.81645  1  3.43562  3.07254  0.800155
 11583.9  9.81624  1.0  3.4354  3.07217  0.802058
 11584.125  9.81602  1  3.43494  3.07193  0.803529
 11584.375  9.81581  1.0  3.43474  3.07177  0.804613
 11584.6  9.8156  1  3.43446  3.07169  0.805226
 11584.9  9.81538  1.0  3.43421  3.07141  0.805671
 11585.125  9.81517  1  3.43369  3.07104  0.805824
 11585.375  9.81496  1.0  3.43362  3.07087  0.805783
 11585.6  9.81474  1  3.43316  3.07052  0.805462
 11585.875  9.81453  1.0  3.43295  3.07041  0.805155
 11586.125  9.81431  1  3.43259  3.07009  0.804586
 11586.4  9.8141  1.0  3.43239  3.07001  0.803896
 11586.6  9.81389  1  3.43221  3.06973  0.802981
 11586.875  9.81367  1.0  3.43181  3.06953  0.801745
 11587.125  9.81346  1  3.43153  3.06912  0.800365
 11587.4  9.81325  1.0  3.43131  3.069  0.798647
 11587.6  9.81303  1  3.43104  3.06874  0.796576
 11587.875  9.81282  1.0  3.4306  3.06845  0.794179
 11588.1  9.8126  1  3.43032  3.06808  0.791367
 11588.4  9.81239  1.0  3.42979  3.06788  0.788202
 11588.6  9.81218  1  3.42972  3.06761  0.784594
 11588.875  9.81196  1.0  3.42943  3.06749  0.780693
 11589.1  9.81175  1  3.42906  3.06722  0.776416
 11589.4  9.81154  1.0  3.42884  3.06689  0.771945
 11589.6  9.81132  1  3.42859  3.06679  0.766934
 11589.9  9.81111  1.0  3.42827  3.06645  0.761916
 11590.1  9.81089  1  3.43468  3.07226  0.758072
 11590.4  9.81068  1.0  3.43565  3.07335  0.752918
 11590.6  9.81047  1  3.4353  3.073  0.747473
 11590.9  9.81025  1.0  3.43499  3.07264  0.742122
 11591.1  9.81004  1  3.43481  3.07251  0.736693
 11591.4  9.80983  1.0  3.43456  3.07212  0.731527
 11591.6  9.80961  1  3.43426  3.07196  0.726579
 11591.9  9.8094  1.0  3.43383  3.07187  0.722001
 11592.1  9.80919  1  3.43366  3.0715  0.717761
 11592.4  9.80897  1.0  3.43329  3.07132  0.714075
 11592.6  9.80876  1  3.43315  3.07107  0.710961
 11592.9  9.80855  1.0  3.43277  3.07084  0.708501
 11593.1  9.80833  1  3.43231  3.07057  0.706604
 11593.4  9.80812  1.0  3.43241  3.07044  0.705507
 11593.6  9.8079  1  3.43192  3.07025  0.704967
 11593.9  9.80769  1.0  3.43166  3.07002  0.705025
 11594.1  9.80748  1  3.43146  3.06975  0.705751
 11594.4  9.80726  1.0  3.43107  3.06943  0.706979
 11594.6  9.80705  1  3.43076  3.06927  0.708661
 11594.9  9.80684  1.0  3.43046  3.06892  0.710782
 11595.1  9.80662  1  3.43015  3.0687  0.713401
 11595.4  9.80641  1.0  3.4298  3.06847  0.716077
 11595.6  9.8062  1  3.42955  3.0682  0.719202
 11595.9  9.80598  1.0  3.42934  3.06797  0.722494
 11596.1  9.80577  1  3.4291  3.06777  0.725766
 11596.4  9.80556  1.0  3.42873  3.0675  0.7292
 11596.6  9.80534  1  3.42845  3.06728  0.732566
 11596.9  9.80513  1.0  3.42805  3.06697  0.735838
 11597.1  9.80492  1  3.42781  3.06672  0.739195
 11597.4  9.8047  1.0  3.42753  3.06658  0.742542
 11597.6  9.80449  1  3.42714  3.06625  0.745759
 11597.9  9.80428  1.0  3.42696  3.06596  0.748696
 11598.1  9.80406  1  3.42663  3.06582  0.751577
 11598.4  9.80385  1.0  3.42643  3.06561  0.754289
 11598.6  9.80363  1  3.42599  3.06533  0.756737
 11598.9  9.80342  1.0  3.42589  3.06516  0.759088
 11599.1  9.80321  1  3.42565  3.06501  0.761152
 11599.4  9.80299  1.0  3.42533  3.0647  0.763139
 11599.6  9.80278  1  3.42489  3.06449  0.76465
 11599.9  9.80257  1.0  3.42465  3.06412  0.766128
 11600.1  9.80235  1  3.42437  3.06392  0.767383
 11600.4  9.80214  1.0  3.42407  3.06375  0.768437
 11600.6  9.80193  1  3.42377  3.06355  0.769383
 11600.9  9.80172  1.0  3.42359  3.0632  0.770193
 11601.1  9.8015  1  3.42307  3.06291  0.77106
 11601.4  9.80129  1.0  3.42295  3.06264  0.771842
 11601.6  9.80107  1  3.42259  3.06247  0.772521
 11601.9  9.80086  1.0  3.42244  3.0624  0.773388
 11602.1  9.80065  1  3.42201  3.06209  0.774257
 11602.4  9.80044  1.0  3.42164  3.06176  0.775054
 11602.6  9.80022  1  3.42154  3.06162  0.776006
 11602.9  9.80001  1.0  3.42134  3.06144  0.777152
 11603.1  9.7998  1  3.42096  3.06117  0.778328
 11603.4  9.79958  1.0  3.4208  3.0608  0.779664
 11603.6  9.79937  1  3.42036  3.06057  0.781044
 11603.9  9.79916  1.0  3.42013  3.0604  0.782606
 11604.1  9.79894  1  3.41984  3.06014  0.78396
 11604.4  9.79873  1.0  3.41963  3.06007  0.785728
 11604.6  9.79852  1  3.41933  3.05985  0.78722
 11604.9  9.7983  1.0  3.41911  3.0596  0.788762
 11605.1  9.79809  1  3.41878  3.05938  0.790277
 11605.4  9.79788  1.0  3.41837  3.05899  0.791693
 11605.6  9.79766  1  3.41808  3.05876  0.792967
 11605.9  9.79745  1.0  3.41776  3.05871  0.794167
 11606.1  9.79724  1  3.41762  3.05836  0.795223
 11606.4  9.79702  1.0  3.41747  3.05821  0.796093
 11606.6  9.79681  1  3.41701  3.05782  0.796736
 11606.9  9.7966  1.0  3.41666  3.05769  0.79722
 11607.1  9.79639  1  3.41637  3.05736  0.797301
 11607.4  9.79617  1.0  3.41625  3.05732  0.7974
 11607.6  9.79596  1  3.41584  3.05695  0.797213
 11607.9  9.79575  1.0  3.41551  3.05666  0.796794
 11608.1  9.79553  1  3.41536  3.05656  0.796104
 11608.4  9.79532  1.0  3.41499  3.05627  0.795294
 11608.6  9.79511  1  3.41478  3.05599  0.794353
 11608.9  9.79489  1.0  3.41438  3.05585  0.792974
 11609.1  9.79468  1  3.41417  3.05552  0.791611
 11609.4  9.79447  1.0  3.41405  3.05543  0.790107
 11609.6  9.79425  1  3.41358  3.05513  0.788459
 11609.9  9.79404  1.0  3.41343  3.05487  0.786578
 11610.1  9.79383  1  3.41305  3.05475  0.784659
 11610.4  9.79362  1.0  3.41272  3.0544  0.782593
 11610.6  9.7934  1  3.41222  3.05401  0.780511
 11610.9  9.79319  1.0  3.41222  3.05389  0.778305
 11611.1  9.79298  1  3.41192  3.05371  0.776182
 11611.4  9.79277  1.0  3.41156  3.05339  0.773893
 11611.6  9.79255  1  3.41142  3.05331  0.771703
 11611.9  9.79234  1.0  3.41104  3.05306  0.769386
 11612.1  9.79213  1  3.41074  3.0528  0.767053
 11612.4  9.79191  1.0  3.41044  3.05248  0.76469
 11612.6  9.7917  1  3.41011  3.0522  0.762354
 11612.9  9.79149  1.0  3.40998  3.05205  0.760016
 11613.1  9.79128  1  3.40945  3.05169  0.757648
 11623.1  9.78276  1.0  3.40042  3.04446  0.725781
 11633.1  9.77426  1  3.39135  3.03724  0.754436
 11643.1  9.76578  1.0  3.38253  3.03005  0.79414
 11653.1  9.75732  1  3.37361  3.02297  0.790651
 11663.1  9.74888  1.0  3.35191  3.00432  0.752605
 11673.1  9.74045  1  3.35485  3.00802  0.761137
 11683.1  9.73203  1.0  3.34632  3.00096  0.758646
 11693.1  9.72362  1  3.33749  2.9938  0.758164
 11703.1  9.71524  1.0  3.32153  2.9802  0.790273
 11713.1  9.70687  1  3.31961  2.97923  0.792521
 11723.1  9.6985  1.0  3.31086  2.97222  0.77128
 11733.125  9.69016  1  3.30187  2.96512  0.760836
 11743.125  9.68183  1.0  3.29036  2.95543  0.761815
 11753.1  9.67351  1  3.27651  2.94385  0.750491
 11763.1  9.66521  1.0  3.27485  2.94313  0.7688
 11773.1  9.65693  1  3.26652  2.9364  0.789033
 11783.1  9.64865  1.0  3.25765  2.92924  0.792802
 11793.1  9.64041  1  3.24886  2.92207  0.789955
 11803.1  9.63215  1.0  3.23052  2.90641  0.772269
 11813.1  9.62392  1  3.22375  2.901  0.754384
 11823.1  9.61572  1.0  3.22196  2.90005  0.759605
 11833.1  9.6075  1  3.20928  2.88955  0.77952
 11843.1  9.59932  1.0  3.2046  2.88599  0.796472
 11853.1  9.59114  1  3.1908  2.87433  0.791263
 11863.1  9.58299  1.0  3.18392  2.86899  0.793212
 11873.1  9.57483  1  3.17897  2.8651  0.79466
 11883.1  9.5667  1.0  3.17036  2.85801  0.78327
 11893.1  9.5586  1  3.16147  2.85073  0.773265
 11903.1  9.55048  1.0  3.15115  2.8421  0.776627
 11913.1  9.54239  1  3.14214  2.83475  0.794287
 11923.1  9.53431  1.0  3.13496  2.82897  0.803126
 11933.1  9.52626  1  3.1269  2.82232  0.800598
 11943.1  9.5182  1.0  3.11842  2.81547  0.798557
 11953.1  9.51017  1  3.1098  2.80842  0.802322
 11963.1  9.50216  1.0  3.10131  2.80138  0.801313
 11973.1  9.49413  1  3.09309  2.79464  0.794837
 11983.1  9.48614  1.0  3.09108  2.79346  0.794736
 11993.1  9.47816  1  3.0825  2.78634  0.794086
 12003.1  9.47021  1.0  3.07391  2.77929  0.800684
 12013.1  9.46223  1  3.06541  2.77211  0.814353
 12023.1  9.45429  1.0  3.05682  2.76513  0.821742
 12033.1  9.44636  1  3.04852  2.75822  0.819943
 12043.1  9.43847  1.0  3.03748  2.74916  0.815577
 12053.1  9.43055  1  3.02991  2.74268  0.812556
 12063.1  9.42266  1.0  3.02245  2.73669  0.810422
 12073.1  9.4148  1  3.01396  2.72981  0.810261
 12083.1  9.40693  1.0  3.00571  2.72276  0.810577
 12093.1  9.39908  1  2.99722  2.71578  0.81515
 12103.1  9.39124  1.0  2.98876  2.7087  0.82079
 12113  9.38344  1  2.98013  2.70158  0.825203
 12123.1  9.37561  1.0  2.96997  2.69296  0.829429
 12133.1  9.36782  1  2.9636  2.68791  0.833862
 12143.1  9.36003  1.0  2.95338  2.67918  0.833373
 12153.1  9.35227  1  2.94771  2.67485  0.832846
 12163.1  9.34451  1.0  2.93331  2.66215  0.828911
 12173.1  9.33677  1  2.93144  2.66134  0.828527
 12183  9.32905  1.0  2.92312  2.65424  0.827477
 12193.1  9.32132  1  2.91444  2.64698  0.828158
 12203.1  9.31361  1.0  2.90554  2.6394  0.831099
 12213  9.30592  1  2.89616  2.63158  0.835882
 12223  9.29825  1.0  2.88681  2.62356  0.839847
 12233  9.29057  1  2.87708  2.61527  0.841957
 12243  9.28292  1.0  2.8675  2.6072  0.844076
 12253  9.27528  1  2.85731  2.59867  0.846762
 12263  9.26766  1.0  2.8331  2.57719  0.844921
 12273  9.26003  1  2.78467  2.53369  0.832787
 12283  9.25242  1.0  2.81826  2.56472  0.84296
 12293  9.24484  1  2.78217  2.53261  0.831617
 12303  9.23726  1.0  2.80896  2.55723  0.840106
 12313  9.22969  1  2.80018  2.54992  0.840512
 12323  9.22214  1.0  2.79137  2.54252  0.843287
 12333  9.21459  1  2.78279  2.53511  0.84807
 12343  9.20708  1.0  2.77459  2.5284  0.852358
 12353  9.19955  1  2.76605  2.52105  0.854989
 12363  9.19204  1.0  2.755  2.51152  0.855705
 12373  9.18455  1  2.75153  2.50893  0.858858
 12383  9.17708  1.0  2.7434  2.502  0.860458
 12393  9.1696  1  2.73511  2.49502  0.861643
 12403  9.16215  1.0  2.72652  2.48779  0.862154
 12413  9.1547  1  2.71768  2.48018  0.861886
 12423.0  9.14729  1.0  2.70908  2.47274  0.861372
 12433  9.13985  1  2.69033  2.45629  0.857518
 12443  9.13245  1.0  2.69348  2.45968  0.86105
 12453  9.12506  1  2.68275  2.45034  0.861167
 12463  9.11768  1.0  2.66672  2.43623  0.860315
 12473  9.1103  1  2.67041  2.4402  0.866491
 12483  9.10295  1.0  2.66158  2.43265  0.868921
 12493  9.0956  1  2.65488  2.42694  0.872221
 12503  9.08827  1.0  2.64672  2.41994  0.874678
 12513  9.08094  1  2.63884  2.41324  0.876523
 12523  9.07363  1.0  2.63104  2.40654  0.877768
 12533  9.06633  1  2.6232  2.39984  0.878572
 12543  9.05904  1.0  2.61527  2.39319  0.879311
 12553  9.05176  1  2.60747  2.38642  0.879715
 12563  9.0445  1.0  2.5996  2.37954  0.88001
 12573  9.03725  1  2.59151  2.37281  0.879937
 12583  9.03001  1.0  2.58346  2.36598  0.879903
 12593  9.02278  1  2.57546  2.35915  0.880498
 12603  9.01556  1.0  2.56746  2.35223  0.881703
 12613  9.00835  1  2.55844  2.34436  0.883138
 12623  9.00116  1.0  2.55032  2.33733  0.884718
 12633  8.99397  1  2.54006  2.32851  0.885685
 12643  8.9868  1.0  2.53492  2.32416  0.888383
 12653  8.97964  1  2.52677  2.31726  0.890138
 12663  8.97249  1.0  2.51864  2.31015  0.891726
 12673  8.96536  1  2.51048  2.30336  0.892893
 12683  8.95823  1.0  2.50256  2.29635  0.89399
 12693  8.95112  1  2.49452  2.28942  0.894485
 12703  8.94401  1.0  2.48657  2.28265  0.894682
 12713  8.93692  1  2.47862  2.27569  0.894822
 12723  8.92984  1.0  2.47059  2.26887  0.895099
 12733  8.92277  1  2.461  2.26035  0.895073
 12743  8.91571  1.0  2.45533  2.25559  0.896503
 12753  8.90867  1  2.44727  2.24856  0.897176
 12763  8.90163  1.0  2.43943  2.24177  0.898304
 12773  8.8946  1  2.4316  2.23518  0.899457
 12783  8.88759  1.0  2.42375  2.22832  0.900609
 12793  8.88059  1  2.41595  2.22152  0.90149