File: MEX1_29701_processed.xdi
# XDI/1.0
# Mono.d_spacing: 3.13897
# Reference.Element: V
# ROI.start_bin: nan
# ROI.end_bin: nan
# Element.symbol: None
# Element.edge: None
# Processing.version: spec_processing_library v0.3.5
# Column.1: energy
# Column.2: bragg
# Column.3: count_time seconds
# Column.4: i0
# Column.5: i1
# Column.6: i2
# Describe.Column.1: energy - MEX1ES01ZEB01:CALC_ENERGY_EV
# Describe.Column.2: bragg - MEX1ES01ZEB01:BRAGG_WITH_OFFSET
# Describe.Column.3: count_time - MEX1ES01ZEB01:GATE_TIME_SET
# Describe.Column.4: i0 - MEX1ES01DAQ01:ch1:S:MeanValue_RBV
# Describe.Column.5: i1 - MEX1ES01DAQ01:ch2:S:MeanValue_RBV
# Describe.Column.6: i2 - MEX1ES01DAQ01:ch3:S:MeanValue_RBV
# Samples: [417, 417, 417, 417, 417, 417]
# ///
# V foil
#
# xdi from default mda2xdi preset for mex1.
#--------
#  energy   bragg   count_time   i0   i1   i2
 5264.83  22.0315  1.0  2.44407  1.47431  2.14791
 5274.83  21.9875  1  2.45095  1.48865  2.19231
 5284.83  21.9438  1.0  2.44889  1.49762  2.22921
 5294.83  21.9002  1  2.45387  1.5109  2.27303
 5304.83  21.8568  1.0  2.45802  1.52372  2.31676
 5314.83  21.8135  1  2.46194  1.53638  2.36064
 5324.83  21.7705  1.0  2.46585  1.54912  2.4051
 5334.83  21.7276  1  2.46965  1.56178  2.44998
 5344.83  21.6849  1.0  2.47329  1.57437  2.49525
 5354.82  21.6423  1  2.47689  1.58695  2.54109
 5364.82  21.6  1.0  2.48048  1.59951  2.58708
 5374.82  21.5578  1  2.48392  1.61207  2.63363
 5384.82  21.5157  1.0  2.48739  1.62454  2.68067
 5394.82  21.4739  1  2.49119  1.63731  2.72853
 5404.82  21.4322  1.0  2.4925  1.64848  2.77404
 5414.82  21.3907  1  2.49352  1.65951  2.81923
 5424.82  21.3493  1.0  2.4982  1.67287  2.86844
 5434.82  21.3081  1  2.50148  1.68538  2.91538
 5444.82  21.2671  1.0  2.50444  1.69772  2.95904
 5445.07  21.266  1  2.50464  1.6981  2.96026
 5445.32  21.265  1.0  2.50466  1.6984  2.9612
 5445.57  21.264  1  2.50474  1.69867  2.96226
 5445.82  21.263  1.0  2.5047  1.69885  2.96307
 5446.07  21.2619  1  2.5047  1.69914  2.96396
 5446.32  21.2609  1.0  2.50472  1.69941  2.96483
 5446.57  21.2599  1  2.50479  1.69969  2.96581
 5446.82  21.2589  1.0  2.50478  1.69998  2.96674
 5447.07  21.2579  1  2.50481  1.70024  2.9676
 5447.32  21.2568  1.0  2.5048  1.70051  2.96839
 5447.57  21.2558  1  2.5048  1.70073  2.96925
 5447.82  21.2548  1.0  2.50484  1.70103  2.97006
 5448.07  21.2538  1  2.5049  1.70135  2.97131
 5448.32  21.2527  1.0  2.50495  1.70164  2.97188
 5448.57  21.2517  1  2.50502  1.70192  2.9729
 5448.82  21.2507  1.0  2.50506  1.70219  2.97348
 5449.07  21.2497  1  2.50504  1.70244  2.97432
 5449.32  21.2487  1.0  2.50507  1.70274  2.97525
 5449.57  21.2476  1  2.5051  1.70303  2.97613
 5449.82  21.2466  1.0  2.5052  1.70334  2.97698
 5450.07  21.2456  1  2.50527  1.7036  2.97765
 5450.32  21.2446  1.0  2.50522  1.70389  2.97857
 5450.57  21.2435  1  2.50522  1.7041  2.97907
 5450.82  21.2425  1.0  2.50518  1.70436  2.97973
 5451.07  21.2415  1  2.50529  1.70465  2.9805
 5451.32  21.2405  1.0  2.50537  1.70502  2.98117
 5451.57  21.2395  1  2.50538  1.70525  2.98182
 5451.82  21.2384  1.0  2.50544  1.70557  2.98242
 5452.07  21.2374  1  2.50542  1.70578  2.98317
 5452.32  21.2364  1.0  2.50546  1.7061  2.98368
 5452.57  21.2354  1  2.50549  1.70632  2.9844
 5452.82  21.2344  1.0  2.50547  1.70662  2.98499
 5453.07  21.2333  1  2.50559  1.70696  2.98533
 5453.32  21.2323  1.0  2.50557  1.70722  2.98603
 5453.57  21.2313  1  2.50559  1.70743  2.98643
 5453.82  21.2303  1.0  2.50561  1.70774  2.98682
 5454.07  21.2293  1  2.50568  1.708  2.98713
 5454.32  21.2282  1.0  2.50574  1.70834  2.9875
 5454.57  21.2272  1  2.50581  1.70866  2.98796
 5454.82  21.2262  1.0  2.50581  1.70892  2.98814
 5455.07  21.2252  1  2.50582  1.70919  2.98833
 5455.32  21.2242  1.0  2.50577  1.70942  2.9884
 5455.57  21.2231  1  2.5058  1.7097  2.98855
 5455.82  21.2221  1.0  2.50582  1.70998  2.98852
 5456.07  21.2211  1  2.5059  1.71025  2.98864
 5456.32  21.2201  1.0  2.50598  1.71055  2.98833
 5456.57  21.2191  1  2.50599  1.7108  2.98823
 5456.82  21.218  1.0  2.50602  1.71111  2.98806
 5457.07  21.217  1  2.50606  1.71136  2.98751
 5457.32  21.216  1.0  2.50609  1.71163  2.98723
 5457.57  21.215  1  2.50613  1.71194  2.98661
 5457.82  21.214  1.0  2.50613  1.71221  2.98586
 5458.07  21.2129  1  2.50618  1.71245  2.98464
 5458.32  21.2119  1.0  2.50616  1.71271  2.98361
 5458.57  21.2109  1  2.50619  1.71299  2.98229
 5458.82  21.2099  1.0  2.50613  1.71328  2.98064
 5459.07  21.2089  1  2.50621  1.71348  2.97882
 5459.32  21.2079  1.0  2.50629  1.71381  2.97692
 5459.57  21.2068  1  2.50627  1.7141  2.97435
 5459.82  21.2058  1.0  2.50627  1.71437  2.97123
 5460.07  21.2048  1  2.50637  1.71464  2.96777
 5460.32  21.2038  1.0  2.50631  1.7149  2.96376
 5460.57  21.2028  1  2.50638  1.71522  2.95884
 5460.82  21.2017  1.0  2.50647  1.71552  2.95299
 5461.07  21.2007  1  2.50652  1.71579  2.94604
 5461.32  21.1997  1.0  2.50648  1.716  2.9371
 5461.57  21.1987  1  2.50654  1.71632  2.92612
 5461.82  21.1977  1.0  2.5066  1.7166  2.9125
 5462.07  21.1967  1  2.50661  1.71688  2.89433
 5462.32  21.1956  1.0  2.50662  1.71716  2.87004
 5462.57  21.1946  1  2.50668  1.71748  2.83658
 5462.82  21.1936  1.0  2.50671  1.71772  2.78788
 5463.07  21.1926  1  2.50668  1.71798  2.71449
 5463.32  21.1916  1.0  2.5067  1.71823  2.60181
 5463.57  21.1906  1  2.50668  1.71847  2.43487
 5463.82  21.1895  1.0  2.50674  1.71878  2.2254
 5464.07  21.1885  1  2.50687  1.71906  2.01997
 5464.32  21.1875  1.0  2.50682  1.71933  1.88643
 5464.57  21.1865  1  2.50683  1.71962  1.85104
 5464.82  21.1855  1.0  2.50685  1.71989  1.88378
 5465.07  21.1845  1  2.50692  1.72016  1.9387
 5465.32  21.1834  1.0  2.50693  1.72046  1.9861
 5465.57  21.1824  1  2.50702  1.72078  2.01383
 5465.82  21.1814  1.0  2.50705  1.721  2.01993
 5466.07  21.1804  1  2.50707  1.72133  2.00574
 5466.32  21.1794  1.0  2.50707  1.72154  1.97616
 5466.57  21.1784  1  2.50706  1.72182  1.93788
 5466.82  21.1774  1.0  2.50709  1.7221  1.89612
 5467.07  21.1763  1  2.50714  1.7224  1.85388
 5467.32  21.1753  1.0  2.50716  1.72268  1.81124
 5467.57  21.1743  1  2.50716  1.72287  1.76909
 5467.82  21.1733  1.0  2.50718  1.72313  1.72867
 5468.07  21.1723  1  2.50721  1.72339  1.69158
 5468.32  21.1713  1.0  2.50726  1.72371  1.65887
 5468.57  21.1703  1  2.5072  1.72397  1.63096
 5468.82  21.1692  1.0  2.50718  1.72421  1.60809
 5469.07  21.1682  1  2.50724  1.7245  1.58983
 5469.32  21.1672  1.0  2.50726  1.72473  1.57601
 5469.57  21.1662  1  2.51077  1.72744  1.56781
 5469.82  21.1652  1.0  2.51342  1.72952  1.56194
 5470.07  21.1642  1  2.51343  1.72976  1.55651
 5470.32  21.1632  1.0  2.51347  1.73005  1.55235
 5470.57  21.1621  1  2.51351  1.73036  1.54838
 5470.82  21.1611  1.0  2.51359  1.73065  1.5432
 5471.07  21.1601  1  2.51362  1.73095  1.53485
 5471.32  21.1591  1.0  2.51364  1.73121  1.52176
 5471.57  21.1581  1  2.51359  1.73142  1.50242
 5471.82  21.1571  1.0  2.5136  1.73169  1.47567
 5472.07  21.1561  1  2.51372  1.73207  1.44197
 5472.32  21.1551  1.0  2.51373  1.73227  1.40212
 5472.57  21.154  1  2.51369  1.73255  1.359
 5472.82  21.153  1.0  2.51369  1.73279  1.31519
 5473.07  21.152  1  2.51368  1.73308  1.27221
 5473.32  21.151  1.0  2.51378  1.73338  1.23178
 5473.57  21.15  1  2.51385  1.7337  1.19435
 5473.82  21.149  1.0  2.51386  1.73392  1.15972
 5474.07  21.148  1  2.51384  1.73425  1.12816
 5474.32  21.1469  1.0  2.51383  1.73446  1.09946
 5474.57  21.1459  1  2.51384  1.7347  1.07329
 5474.82  21.1449  1.0  2.51389  1.73505  1.04926
 5475.07  21.1439  1  2.514  1.73533  1.02678
 5475.32  21.1429  1.0  2.51394  1.73552  1.00542
 5475.57  21.1419  1  2.51405  1.73587  0.984853
 5475.82  21.1409  1.0  2.51408  1.73616  0.964968
 5476.07  21.1399  1  2.51412  1.73644  0.945723
 5476.32  21.1389  1.0  2.5141  1.73671  0.926658
 5476.57  21.1378  1  2.5141  1.73696  0.908175
 5476.82  21.1368  1.0  2.51419  1.73725  0.89052
 5477.07  21.1358  1  2.51423  1.73755  0.873455
 5477.32  21.1348  1.0  2.51418  1.7378  0.857009
 5477.57  21.1338  1  2.51422  1.73806  0.841281
 5477.82  21.1328  1.0  2.51417  1.73831  0.825973
 5478.07  21.1318  1  2.51416  1.73853  0.811456
 5478.32  21.1308  1.0  2.51419  1.73881  0.797309
 5478.57  21.1298  1  2.51429  1.73913  0.783513
 5478.82  21.1287  1.0  2.51423  1.73939  0.770102
 5479.07  21.1277  1  2.51417  1.73961  0.757055
 5479.32  21.1267  1.0  2.51423  1.73992  0.744518
 5479.57  21.1257  1  2.51428  1.74015  0.732238
 5479.82  21.1247  1.0  2.51435  1.74051  0.720895
 5480.07  21.1237  1  2.51443  1.74079  0.710383
 5480.32  21.1227  1.0  2.51439  1.74108  0.700662
 5480.57  21.1217  1  2.51442  1.74133  0.691686
 5480.82  21.1207  1.0  2.51444  1.74162  0.683111
 5481.06  21.1197  1  2.51445  1.74187  0.674475
 5481.32  21.1187  1.0  2.51447  1.74215  0.665615
 5481.57  21.1176  1  2.51442  1.74239  0.656438
 5481.82  21.1166  1.0  2.51452  1.74264  0.647457
 5482.07  21.1156  1  2.51461  1.74298  0.638889
 5482.32  21.1146  1.0  2.51454  1.74317  0.631646
 5482.57  21.1136  1  2.51455  1.7435  0.626257
 5482.82  21.1126  1.0  2.51464  1.74382  0.623213
 5483.07  21.1116  1  2.51462  1.74401  0.62277
 5483.32  21.1106  1.0  2.51464  1.74427  0.625205
 5483.57  21.1096  1  2.51462  1.74454  0.630386
 5483.82  21.1086  1.0  2.51466  1.7448  0.638368
 5484.07  21.1076  1  2.5147  1.74512  0.648344
 5484.32  21.1065  1.0  2.5148  1.74542  0.660203
 5484.57  21.1055  1  2.51476  1.74567  0.673212
 5484.82  21.1045  1.0  2.51479  1.74595  0.686977
 5485.07  21.1035  1  2.51482  1.74621  0.700937
 5485.32  21.1025  1.0  2.51481  1.74647  0.714959
 5485.57  21.1015  1  2.51489  1.74674  0.728593
 5485.82  21.1005  1.0  2.51496  1.74704  0.741326
 5486.07  21.0995  1  2.51494  1.74732  0.753015
 5486.32  21.0985  1.0  2.515  1.74762  0.763391
 5486.57  21.0975  1  2.515  1.74788  0.772112
 5486.81  21.0965  1.0  2.51508  1.74814  0.779288
 5487.06  21.0955  1  2.51503  1.74839  0.784798
 5487.32  21.0945  1.0  2.51507  1.74866  0.788551
 5487.57  21.0935  1  2.51505  1.74893  0.790752
 5487.82  21.0924  1.0  2.51508  1.74923  0.791346
 5488.07  21.0914  1  2.51513  1.7495  0.790493
 5488.31  21.0904  1.0  2.51518  1.74981  0.788325
 5488.57  21.0894  1  2.51515  1.75001  0.784992
 5488.81  21.0884  1.0  2.51516  1.75027  0.780496
 5489.06  21.0874  1  2.51516  1.75055  0.775107
 5489.32  21.0864  1.0  2.51532  1.75083  0.769078
 5489.57  21.0854  1  2.51531  1.75116  0.762353
 5489.81  21.0844  1.0  2.51536  1.75145  0.755285
 5490.06  21.0834  1  2.51532  1.75165  0.748112
 5490.31  21.0824  1.0  2.51534  1.75193  0.741044
 5490.56  21.0814  1  2.5154  1.75221  0.734248
 5490.81  21.0804  1.0  2.51543  1.75253  0.727859
 5491.06  21.0794  1  2.51544  1.75278  0.722354
 5491.31  21.0784  1.0  2.51541  1.75305  0.717411
 5491.57  21.0774  1  2.5155  1.75333  0.713492
 5491.81  21.0764  1.0  2.51555  1.75364  0.710365
 5492.06  21.0753  1  2.51563  1.75398  0.708373
 5492.31  21.0743  1.0  2.51554  1.75414  0.707295
 5492.56  21.0733  1  2.51563  1.75449  0.707199
 5492.81  21.0723  1.0  2.51557  1.75471  0.708013
 5493.06  21.0713  1  2.51562  1.75501  0.709665
 5493.31  21.0703  1.0  2.51563  1.75522  0.712056
 5493.56  21.0693  1  2.51573  1.75557  0.715093
 5493.81  21.0683  1.0  2.51572  1.75578  0.718634
 5494.06  21.0673  1  2.51567  1.756  0.722322
 5494.31  21.0663  1.0  2.51573  1.75629  0.726314
 5494.56  21.0653  1  2.51576  1.75662  0.730223
 5494.81  21.0643  1.0  2.51587  1.75693  0.733799
 5495.06  21.0633  1  2.51583  1.75716  0.737073
 5495.31  21.0623  1.0  2.51587  1.75742  0.739792
 5495.56  21.0613  1  2.51584  1.75768  0.74196
 5495.81  21.0603  1.0  2.51575  1.75793  0.743293
 5496.06  21.0593  1  2.51582  1.75816  0.743682
 5496.31  21.0583  1.0  2.51581  1.75847  0.743507
 5496.56  21.0573  1  2.51587  1.75876  0.742504
 5496.81  21.0563  1.0  2.51583  1.75899  0.740661
 5497.06  21.0553  1  2.51584  1.75928  0.73823
 5497.31  21.0543  1.0  2.51591  1.75958  0.735152
 5497.56  21.0533  1  2.51597  1.75986  0.731719
 5497.81  21.0523  1.0  2.516  1.76013  0.728137
 5498.06  21.0513  1  2.51601  1.76039  0.724207
 5498.31  21.0502  1.0  2.51599  1.76066  0.720585
 5498.56  21.0492  1  2.51604  1.76096  0.716802
 5498.81  21.0482  1.0  2.51609  1.76122  0.71329
 5499.06  21.0472  1  2.51611  1.7615  0.710003
 5499.31  21.0462  1.0  2.51619  1.76182  0.707024
 5499.56  21.0452  1  2.51623  1.76209  0.704235
 5499.81  21.0442  1.0  2.51624  1.76234  0.701707
 5500.06  21.0432  1  2.5162  1.76256  0.699351
 5500.31  21.0422  1.0  2.51623  1.76284  0.697105
 5500.56  21.0412  1  2.51624  1.76313  0.694876
 5500.81  21.0402  1.0  2.51621  1.76338  0.692911
 5501.06  21.0392  1  2.51619  1.76361  0.690843
 5501.31  21.0382  1.0  2.5162  1.76387  0.688915
 5501.56  21.0372  1  2.51625  1.76416  0.687187
 5501.81  21.0362  1.0  2.5163  1.76443  0.685535
 5502.06  21.0352  1  2.51637  1.76474  0.684025
 5502.31  21.0342  1.0  2.51635  1.76495  0.682714
 5502.56  21.0332  1  2.51636  1.76531  0.681488
 5502.81  21.0322  1.0  2.51642  1.76551  0.680738
 5503.06  21.0312  1  2.51644  1.76584  0.67983
 5503.31  21.0302  1.0  2.5164  1.76607  0.679387
 5503.56  21.0292  1  2.51638  1.76629  0.678789
 5503.81  21.0282  1.0  2.51643  1.76658  0.678453
 5504.06  21.0272  1  2.52253  1.77113  0.679683
 5504.31  21.0262  1.0  2.5225  1.77136  0.679462
 5504.56  21.0252  1  2.52252  1.77163  0.679096
 5504.81  21.0242  1.0  2.52251  1.77186  0.678866
 5505.06  21.0232  1  2.52247  1.7721  0.678317
 5505.31  21.0222  1.0  2.52256  1.77244  0.67772
 5505.56  21.0212  1  2.52261  1.77272  0.677017
 5505.81  21.0202  1.0  2.52263  1.77295  0.675967
 5506.06  21.0192  1  2.52261  1.77326  0.674852
 5506.31  21.0182  1.0  2.52264  1.77351  0.673483
 5506.56  21.0172  1  2.52269  1.77378  0.671971
 5506.81  21.0162  1.0  2.52272  1.77409  0.670153
 5507.06  21.0152  1  2.52275  1.77434  0.668262
 5507.31  21.0142  1.0  2.52278  1.77464  0.666316
 5507.56  21.0132  1  2.52272  1.77486  0.664228
 5507.81  21.0122  1.0  2.52271  1.77512  0.661977
 5508.06  21.0112  1  2.52276  1.77543  0.659929
 5508.31  21.0102  1.0  2.52273  1.7757  0.657968
 5508.56  21.0092  1  2.52277  1.77596  0.656156
 5508.81  21.0082  1.0  2.52279  1.77622  0.654531
 5509.06  21.0072  1  2.52268  1.77643  0.653224
 5509.31  21.0062  1.0  2.52276  1.77674  0.652236
 5509.56  21.0052  1  2.52284  1.77704  0.651576
 5509.81  21.0042  1.0  2.52281  1.7773  0.651256
 5510.06  21.0032  1  2.52286  1.77756  0.651038
 5510.31  21.0022  1.0  2.52289  1.77787  0.651279
 5510.56  21.0012  1  2.52292  1.77808  0.651714
 5510.81  21.0002  1.0  2.52285  1.77832  0.652344
 5511.06  20.9992  1  2.52292  1.77863  0.653413
 5511.31  20.9982  1.0  2.52288  1.77885  0.65432
 5511.56  20.9972  1  2.52294  1.77917  0.655582
 5511.81  20.9963  1.0  2.52293  1.77945  0.656838
 5512.06  20.9953  1  2.5229  1.77962  0.658443
 5512.31  20.9943  1.0  2.52297  1.77996  0.660119
 5512.56  20.9933  1  2.523  1.78027  0.661462
 5512.81  20.9923  1.0  2.52313  1.78054  0.663104
 5513.06  20.9913  1  2.52301  1.78079  0.664761
 5513.31  20.9903  1.0  2.52296  1.78099  0.666316
 5513.56  20.9893  1  2.52301  1.78124  0.668015
 5513.81  20.9883  1.0  2.52298  1.78153  0.669846
 5514.06  20.9873  1  2.52302  1.78177  0.67124
 5514.31  20.9863  1.0  2.52305  1.78205  0.67272
 5514.56  20.9853  1  2.523  1.78225  0.674082
 5514.81  20.9843  1.0  2.52302  1.78252  0.675498
 5524.81  20.9445  1  2.52497  1.79422  0.797701
 5534.81  20.9049  1.0  2.5272  1.80608  0.805911
 5544.81  20.8654  1  2.52935  1.81787  0.803351
 5554.81  20.8261  1.0  2.53144  1.82957  0.871832
 5564.81  20.787  1  2.53345  1.84126  0.69615
 5574.81  20.748  1.0  2.53533  1.85288  0.847155
 5584.81  20.7091  1  2.53725  1.86444  0.91575
 5594.81  20.6704  1.0  2.53907  1.87597  0.961927
 5604.81  20.6318  1  2.54091  1.88748  0.964888
 5614.81  20.5934  1.0  2.54255  1.89888  0.930459
 5624.81  20.5552  1  2.54378  1.90994  0.873259
 5634.81  20.517  1.0  2.54547  1.92139  0.955164
 5644.8  20.4791  1  2.54684  1.93255  1.03199
 5654.8  20.4412  1.0  2.54823  1.94371  1.07365
 5664.8  20.4035  1  2.54939  1.95473  1.11865
 5674.8  20.366  1.0  2.55061  1.96574  1.14754
 5684.8  20.3286  1  2.55185  1.97675  1.10875
 5694.8  20.2913  1.0  2.55284  1.98758  1.07328
 5704.8  20.2542  1  2.55391  1.99843  1.12468
 5714.8  20.2172  1.0  2.55492  2.00927  1.20748
 5724.8  20.1804  1  2.55578  2.01991  1.24066
 5734.8  20.1436  1.0  2.55652  2.03058  1.26969
 5744.8  20.1071  1  2.55728  2.04115  1.29942
 5754.8  20.0706  1.0  2.55797  2.0516  1.3334
 5764.8  20.0343  1  2.5585  2.06201  1.33722
 5774.79  19.9981  1.0  2.55903  2.07233  1.33777
 5784.79  19.9621  1  2.55952  2.08261  1.35622
 5794.79  19.9262  1.0  2.55981  2.0927  1.39367
 5804.79  19.8904  1  2.55995  2.10267  1.4422
 5814.79  19.8548  1.0  2.55995  2.11252  1.48392
 5824.79  19.8193  1  2.55981  2.12223  1.51031
 5834.79  19.7839  1.0  2.55954  2.13176  1.53975
 5844.79  19.7486  1  2.55906  2.1411  1.56181
 5854.79  19.7135  1.0  2.55825  2.15013  1.58934
 5864.79  19.6785  1  2.55714  2.15885  1.61233
 5874.79  19.6436  1.0  2.5552  2.16698  1.6274
 5884.79  19.6089  1  2.55236  2.17418  1.65666
 5894.79  19.5743  1.0  2.54658  2.17882  1.68978
 5904.78  19.5398  1  2.52214  2.16739  1.7049
 5914.78  19.5054  1.0  2.55767  2.20757  1.76323
 5924.78  19.4711  1  2.48822  2.15674  1.7443
 5934.78  19.437  1.0  2.44352  2.12704  1.74043
 5944.78  19.403  1  2.56411  2.24183  1.86173
 5954.78  19.3691  1.0  2.60081  2.28359  1.92308
 5964.78  19.3354  1  2.58245  2.27699  1.93983
 5974.78  19.3017  1.0  2.57651  2.28127  1.9621
 5984.78  19.2682  1  2.57318  2.28779  1.9873
 5994.78  19.2348  1.0  2.57034  2.29475  2.01674
 6004.78  19.2015  1  2.56741  2.30147  2.04794
 6014.78  19.1683  1.0  2.56564  2.30933  2.08195
 6024.78  19.1353  1  2.56417  2.31735  2.11429
 6034.77  19.1024  1.0  2.56294  2.32555  2.14695
 6044.77  19.0695  1  2.56157  2.33357  2.17859
 6054.77  19.0368  1.0  2.56012  2.34154  2.21256
 6064.77  19.0042  1  2.5584  2.3491  2.24482
 6074.77  18.9718  1.0  2.55684  2.35684  2.27785
 6084.77  18.9394  1  2.55546  2.36475  2.31041
 6094.77  18.9071  1.0  2.55412  2.37267  2.34209
 6104.77  18.875  1  2.55288  2.38062  2.37409
 6114.77  18.843  1.0  2.55163  2.38849  2.40582
 6124.77  18.8111  1  2.55044  2.39645  2.43839
 6134.77  18.7792  1.0  2.54906  2.40411  2.47138
 6144.76  18.7475  1  2.54759  2.41172  2.50591
 6154.76  18.716  1.0  2.54593  2.41901  2.54076
 6164.76  18.6845  1  2.54423  2.42639  2.57576
 6174.76  18.6531  1.0  2.54245  2.43357  2.61104
 6184.76  18.6218  1  2.54088  2.44096  2.64654
 6194.76  18.5907  1.0  2.53918  2.44816  2.68211
 6204.76  18.5596  1  2.5375  2.45529  2.7181
 6214.76  18.5287  1.0  2.53577  2.46244  2.75335
 6224.76  18.4978  1  2.53409  2.46945  2.78879
 6234.76  18.4671  1.0  2.53223  2.4764  2.82438
 6244.76  18.4365  1  2.53039  2.48323  2.85953
 6254.76  18.4059  1.0  2.52857  2.49004  2.89542
 6264.75  18.3755  1  2.52682  2.49695  2.9318
 6274.75  18.3452  1.0  2.52492  2.50362  2.96846
 6284.75  18.3149  1  2.52278  2.51004  3.00516
 6294.75  18.2848  1.0  2.52071  2.51645  3.04207
 6304.75  18.2548  1  2.51865  2.52281  3.07975
 6314.75  18.2249  1.0  2.51657  2.5292  3.11746
 6324.75  18.195  1  2.52017  2.5412  3.16308
 6334.75  18.1653  1.0  2.51779  2.54723  3.20128
 6344.75  18.1357  1  2.51528  2.55304  3.23907
 6354.75  18.1062  1.0  2.5129  2.55887  3.27652
 6364.75  18.0767  1  2.51051  2.56475  3.3142
 6374.75  18.0474  1.0  2.50822  2.57074  3.35252
 6384.75  18.0182  1  2.50599  2.57661  3.39085
 6394.75  17.989  1.0  2.50371  2.58244  3.42913
 6404.74  17.96  1  2.50128  2.5881  3.46779
 6414.74  17.931  1.0  2.49882  2.59368  3.50648
 6424.74  17.9022  1  2.49642  2.59927  3.54552
 6434.74  17.8734  1.0  2.49395  2.60473  3.58463
 6444.74  17.8448  1  2.49156  2.61026  3.62413
 6454.74  17.8162  1.0  2.48926  2.6158  3.66398
 6464.74  17.7877  1  2.47552  2.60923  3.68727
 6474.74  17.7593  1.0  2.48156  2.62354  3.73994
 6484.74  17.731  1  2.47924  2.62894  3.78034
 6494.74  17.7028  1.0  2.47658  2.63395  3.8198
 6504.74  17.6747  1  2.47394  2.63888  3.85976
 6514.74  17.6467  1.0  2.47119  2.64375  3.89946
 6524.73  17.6188  1  2.46847  2.64858  3.93961
 6534.73  17.5909  1.0  2.46551  2.65306  3.97928
 6544.73  17.5632  1  2.46244  2.65753  4.01883
 6554.73  17.5355  1.0  2.45927  2.66173  4.05835
 6564.73  17.5079  1  2.45618  2.66594  4.09771
 6574.73  17.4805  1.0  2.45325  2.67029  4.13779
 6584.73  17.4531  1  2.4499  2.67415  4.17746
 6594.73  17.4258  1.0  2.44598  2.67743  4.21585
 6604.73  17.3985  1  2.44318  2.68177  4.25658
 6614.73  17.3714  1.0  2.43998  2.68572  4.2967
 6624.73  17.3443  1  2.43698  2.68977  4.33738
 6634.72  17.3174  1.0  2.43404  2.69386  4.3781
 6644.72  17.2905  1  2.43063  2.69745  4.41838
 6654.72  17.2637  1.0  2.42758  2.70125  4.45893
 6664.72  17.237  1  2.42416  2.70484  4.49902
 6674.72  17.2103  1.0  2.42079  2.70816  4.53902
 6684.72  17.1838  1  2.41734  2.71152  4.57959
 6694.72  17.1573  1.0  2.41384  2.71475  4.6198