File: MEX1_29697_processed.xdi
# XDI/1.0
# Mono.d_spacing: 3.13897
# Reference.Element: Co
# ROI.start_bin: nan
# ROI.end_bin: nan
# Element.symbol: None
# Element.edge: None
# Processing.version: spec_processing_library v0.3.5
# Column.1: energy
# Column.2: bragg
# Column.3: count_time seconds
# Column.4: i0
# Column.5: i1
# Column.6: i2
# Describe.Column.1: energy - MEX1ES01ZEB01:CALC_ENERGY_EV
# Describe.Column.2: bragg - MEX1ES01ZEB01:BRAGG_WITH_OFFSET
# Describe.Column.3: count_time - MEX1ES01ZEB01:GATE_TIME_SET
# Describe.Column.4: i0 - MEX1ES01DAQ01:ch1:S:MeanValue_RBV
# Describe.Column.5: i1 - MEX1ES01DAQ01:ch2:S:MeanValue_RBV
# Describe.Column.6: i2 - MEX1ES01DAQ01:ch3:S:MeanValue_RBV
# Samples: [417, 417, 417, 417, 417, 417]
# ///
# Co foil
#
# xdi from default mda2xdi preset for mex1.
#--------
#  energy   bragg   count_time   i0   i1   i2
 7508.63  15.2493  1  4.29672  2.85584  2.40164
 7518.64  15.2285  1.0  4.28764  2.85459  2.40887
 7528.64  15.2078  1  4.27915  2.85348  2.4162
 7538.64  15.1872  1.0  4.27046  2.8524  2.4235
 7548.64  15.1666  1  4.26198  2.85137  2.43075
 7558.64  15.146  1.0  4.25338  2.8501  2.43804
 7568.64  15.1255  1  4.24489  2.84897  2.44522
 7578.64  15.1051  1.0  4.23643  2.84778  2.45229
 7588.63  15.0847  1  4.22811  2.84668  2.45946
 7598.63  15.0644  1.0  4.22017  2.84585  2.46668
 7608.63  15.0441  1  4.20984  2.84333  2.47234
 7618.63  15.0239  1.0  4.20173  2.84224  2.47927
 7628.63  15.0038  1  4.19318  2.84083  2.48565
 7638.63  14.9837  1.0  4.18469  2.83942  2.49175
 7648.63  14.9636  1  4.17606  2.83794  2.49749
 7658.63  14.9436  1.0  4.1675  2.83647  2.50247
 7668.63  14.9237  1  4.15869  2.83472  2.50668
 7678.63  14.9038  1.0  4.14975  2.83293  2.50872
 7688.62  14.884  1  4.14058  2.83093  2.50644
 7688.87  14.8835  1.0  4.14022  2.8308  2.5062
 7689.12  14.883  1  4.13994  2.83069  2.50595
 7689.37  14.8825  1.0  4.13963  2.83058  2.50579
 7689.62  14.882  1  4.13933  2.83042  2.50553
 7689.87  14.8815  1.0  4.13909  2.83048  2.50538
 7690.12  14.881  1  4.13893  2.83037  2.50515
 7690.37  14.8805  1.0  4.13851  2.8302  2.50489
 7690.62  14.88  1  4.13822  2.83012  2.50459
 7690.87  14.8795  1.0  4.13793  2.83002  2.50439
 7691.12  14.879  1  4.13763  2.82996  2.50411
 7691.37  14.8785  1.0  4.13734  2.8298  2.5038
 7691.62  14.8781  1  4.13692  2.82962  2.50335
 7691.87  14.8776  1.0  4.13654  2.82951  2.50298
 7692.12  14.8771  1  4.13623  2.82943  2.50274
 7692.37  14.8766  1.0  4.13603  2.82935  2.50243
 7692.62  14.8761  1  4.13582  2.82931  2.50207
 7692.87  14.8756  1.0  4.1354  2.82911  2.50169
 7693.12  14.8751  1  4.13498  2.82897  2.50115
 7693.37  14.8746  1.0  4.13475  2.82889  2.5009
 7693.62  14.8741  1  4.13447  2.8289  2.50046
 7693.87  14.8736  1.0  4.13413  2.82869  2.50005
 7694.12  14.8731  1  4.13372  2.82847  2.49954
 7694.37  14.8726  1.0  4.13349  2.82836  2.49905
 7694.62  14.8721  1  4.13314  2.82833  2.4986
 7694.87  14.8716  1.0  4.13298  2.82829  2.49822
 7695.12  14.8711  1  4.13264  2.82818  2.49772
 7695.37  14.8706  1.0  4.13234  2.82811  2.4971
 7695.62  14.8701  1  4.13195  2.82797  2.49648
 7695.87  14.8696  1.0  4.13159  2.82786  2.49589
 7696.12  14.8692  1  4.13138  2.82773  2.49534
 7696.37  14.8687  1.0  4.13102  2.82761  2.49469
 7696.62  14.8682  1  4.13058  2.82739  2.49402
 7696.87  14.8677  1.0  4.13014  2.8272  2.49328
 7697.12  14.8672  1  4.13003  2.8272  2.49261
 7697.37  14.8667  1.0  4.12964  2.82706  2.49184
 7697.62  14.8662  1  4.12924  2.82692  2.49091
 7697.87  14.8657  1.0  4.12887  2.82676  2.4901
 7698.12  14.8652  1  4.1285  2.82657  2.48916
 7698.37  14.8647  1.0  4.13647  2.83225  2.4934
 7698.62  14.8642  1  4.13771  2.83314  2.49332
 7698.87  14.8637  1.0  4.13738  2.83298  2.49233
 7699.12  14.8632  1  4.13698  2.83278  2.49125
 7699.37  14.8627  1.0  4.13647  2.83261  2.49003
 7699.62  14.8622  1  4.13607  2.83242  2.48885
 7699.87  14.8617  1.0  4.13555  2.83216  2.48757
 7700.12  14.8612  1  4.13523  2.83202  2.4862
 7700.37  14.8608  1.0  4.13463  2.83182  2.48484
 7700.62  14.8603  1  4.134  2.8314  2.48317
 7700.87  14.8598  1.0  4.13349  2.83123  2.48154
 7701.12  14.8593  1  4.13287  2.83087  2.47973
 7701.37  14.8588  1.0  4.13225  2.83058  2.47794
 7701.62  14.8583  1  4.13136  2.83007  2.47586
 7701.87  14.8578  1.0  4.13024  2.82937  2.47348
 7702.12  14.8573  1  4.12887  2.82854  2.47082
 7702.37  14.8568  1.0  4.12702  2.82743  2.46772
 7702.62  14.8563  1  4.12399  2.82536  2.46377
 7702.87  14.8558  1.0  4.11766  2.82114  2.45772
 7703.12  14.8553  1  4.1047  2.81242  2.44749
 7703.37  14.8548  1.0  4.08187  2.79679  2.43113
 7703.62  14.8543  1  4.05089  2.77571  2.4098
 7703.87  14.8539  1.0  4.03026  2.76177  2.39433
 7704.12  14.8534  1  4.03633  2.76594  2.39442
 7704.37  14.8529  1.0  4.06406  2.78504  2.40683
 7704.62  14.8524  1  4.09713  2.80781  2.4219
 7704.87  14.8519  1.0  4.12119  2.82444  2.43125
 7705.12  14.8514  1  4.13134  2.83148  2.43163
 7705.37  14.8509  1.0  4.13248  2.83233  2.42584
 7705.62  14.8504  1  4.13204  2.8322  2.41823
 7705.87  14.8499  1.0  4.13158  2.83197  2.40929
 7706.12  14.8494  1  4.13112  2.83177  2.39899
 7706.37  14.8489  1.0  4.13061  2.83149  2.38654
 7706.62  14.8484  1  4.13019  2.83136  2.37166
 7706.87  14.8479  1.0  4.1295  2.83103  2.35316
 7707.12  14.8474  1  4.12885  2.8307  2.32946
 7707.37  14.847  1.0  4.12847  2.83043  2.29905
 7707.62  14.8465  1  4.12792  2.83022  2.25903
 7707.87  14.846  1.0  4.12748  2.82998  2.20639
 7708.12  14.8455  1  4.1268  2.82968  2.14024
 7708.37  14.845  1.0  4.12608  2.82926  2.06032
 7708.62  14.8445  1  4.12542  2.82888  1.97229
 7708.87  14.844  1.0  4.12468  2.82852  1.88185
 7709.12  14.8435  1  4.12399  2.8281  1.79632
 7709.37  14.843  1.0  4.12302  2.82756  1.71762
 7709.62  14.8425  1  4.12209  2.82705  1.64745
 7709.87  14.842  1.0  4.121  2.82637  1.58401
 7710.12  14.8415  1  4.11949  2.8255  1.52707
 7710.37  14.841  1.0  4.11751  2.82427  1.47541
 7710.62  14.8405  1  4.11447  2.82217  1.42904
 7710.87  14.8401  1.0  4.10897  2.81857  1.38692
 7711.12  14.8396  1  4.09707  2.81047  1.3479
 7711.37  14.8391  1.0  4.07493  2.79537  1.31066
 7711.62  14.8386  1  4.04447  2.77458  1.2756
 7711.87  14.8381  1.0  4.02188  2.75928  1.24771
 7712.12  14.8376  1  4.02272  2.75991  1.23127
 7712.37  14.8371  1.0  4.04575  2.77578  1.22569
 7712.62  14.8366  1  4.07684  2.79733  1.22635
 7712.87  14.8361  1.0  4.10247  2.81499  1.22848
 7713.12  14.8356  1  4.11439  2.82325  1.22905
 7713.37  14.8351  1.0  4.11343  2.82269  1.22727
 7713.62  14.8346  1  4.1049  2.8169  1.22354
 7713.87  14.8342  1.0  4.08799  2.80543  1.21647
 7714.12  14.8337  1  4.0614  2.78728  1.20424
 7714.37  14.8332  1.0  4.03523  2.76941  1.18853
 7714.62  14.8327  1  4.02634  2.7634  1.1736
 7714.87  14.8322  1.0  4.04005  2.7729  1.1604
 7715.12  14.8317  1  4.06633  2.79114  1.1466
 7715.37  14.8312  1.0  4.09494  2.81086  1.12977
 7715.62  14.8307  1  4.11565  2.82515  1.10805
 7715.87  14.8302  1.0  4.12352  2.83065  1.08101
 7716.12  14.8297  1  4.12421  2.83122  1.0512
 7716.37  14.8292  1.0  4.12377  2.83103  1.0211
 7716.62  14.8287  1  4.12322  2.83076  0.991265
 7716.87  14.8283  1.0  4.12273  2.83057  0.962177
 7717.12  14.8278  1  4.12222  2.8303  0.933325
 7717.37  14.8273  1.0  4.12174  2.83003  0.904991
 7717.62  14.8268  1  4.12111  2.82971  0.87707
 7717.87  14.8263  1.0  4.12045  2.8294  0.849832
 7718.12  14.8258  1  4.11992  2.82911  0.823427
 7718.37  14.8253  1.0  4.11953  2.82892  0.798177
 7718.62  14.8248  1  4.11897  2.82864  0.77414
 7718.87  14.8243  1.0  4.11835  2.82837  0.751825
 7719.12  14.8238  1  4.11766  2.82799  0.731007
 7719.37  14.8233  1.0  4.11702  2.8277  0.711958
 7719.62  14.8229  1  4.11651  2.82743  0.694428
 7719.87  14.8224  1.0  4.11571  2.82695  0.678336
 7720.12  14.8219  1  4.11486  2.82652  0.66339
 7720.37  14.8214  1.0  4.11399  2.82599  0.649217
 7720.62  14.8209  1  4.11301  2.82544  0.635672
 7720.87  14.8204  1.0  4.11162  2.82454  0.622366
 7721.12  14.8199  1  4.10973  2.8234  0.609065
 7721.37  14.8194  1.0  4.10676  2.82137  0.595254
 7721.62  14.8189  1  4.10077  2.81744  0.580797
 7721.87  14.8184  1.0  4.08932  2.8096  0.5654
 7722.12  14.8179  1  4.06914  2.7958  0.548568
 7722.37  14.8175  1.0  4.04101  2.77671  0.530818
 7722.62  14.817  1  4.02026  2.7625  0.513875
 7722.87  14.8165  1.0  4.02192  2.76379  0.499998
 7723.12  14.816  1  4.0439  2.779  0.489173
 7723.37  14.8155  1.0  4.07292  2.79905  0.479848
 7723.62  14.815  1  4.09777  2.81621  0.470914
 7723.87  14.8145  1.0  4.11116  2.82552  0.461546
 7724.12  14.814  1  4.11436  2.82779  0.452138
 7724.37  14.8135  1.0  4.11441  2.82799  0.443459
 7724.62  14.813  1  4.11414  2.82795  0.43591
 7724.87  14.8125  1.0  4.11385  2.82773  0.429292
 7725.12  14.8121  1  4.11348  2.82764  0.42353
 7725.37  14.8116  1.0  4.11303  2.8274  0.418484
 7725.62  14.8111  1  4.11257  2.82714  0.414092
 7725.87  14.8106  1.0  4.11236  2.82712  0.410222
 7726.12  14.8101  1  4.11179  2.82689  0.406823
 7726.37  14.8096  1.0  4.11154  2.8268  0.403749
 7726.62  14.8091  1  4.11112  2.82667  0.401099
 7726.87  14.8086  1.0  4.11089  2.82662  0.398713
 7727.12  14.8081  1  4.11048  2.82638  0.396579
 7727.37  14.8076  1.0  4.11006  2.82618  0.394701
 7727.62  14.8072  1  4.10966  2.82609  0.393067
 7727.87  14.8067  1.0  4.10943  2.82598  0.391661
 7728.12  14.8062  1  4.10908  2.82579  0.390438
 7728.37  14.8057  1.0  4.10872  2.8257  0.389438
 7728.62  14.8052  1  4.10839  2.82556  0.388685
 7728.87  14.8047  1.0  4.10801  2.82539  0.388021
 7729.12  14.8042  1  4.10782  2.82541  0.387503
 7729.37  14.8037  1.0  4.10752  2.82531  0.386918
 7729.62  14.8032  1  4.10708  2.82507  0.38635
 7729.87  14.8027  1.0  4.10683  2.82504  0.385582
 7730.12  14.8023  1  4.10657  2.82499  0.384688
 7730.37  14.8018  1.0  4.10626  2.82486  0.383501
 7730.62  14.8013  1  4.10596  2.82475  0.382041
 7730.87  14.8008  1.0  4.10574  2.82469  0.380308
 7731.12  14.8003  1  4.10529  2.82453  0.37826
 7731.37  14.7998  1.0  4.10496  2.82433  0.375989
 7731.62  14.7993  1  4.10465  2.82438  0.373509
 7731.87  14.7988  1.0  4.10436  2.82412  0.370955
 7732.12  14.7983  1  4.10396  2.824  0.368371
 7732.37  14.7979  1.0  4.1036  2.82382  0.365874
 7732.62  14.7974  1  4.10331  2.82377  0.36361
 7732.87  14.7969  1.0  4.10315  2.82374  0.361689
 7733.12  14.7964  1  4.10281  2.82364  0.360144
 7733.37  14.7959  1.0  4.11095  2.82922  0.359803
 7733.62  14.7954  1  4.11155  2.82987  0.359278
 7733.87  14.7949  1.0  4.11116  2.82972  0.35925
 7734.12  14.7944  1  4.11092  2.82957  0.359652
 7734.37  14.7939  1.0  4.11059  2.82947  0.360571
 7734.62  14.7935  1  4.11033  2.82948  0.361972
 7734.87  14.793  1.0  4.11008  2.82932  0.363671
 7735.12  14.7925  1  4.10967  2.82914  0.365682
 7735.37  14.792  1.0  4.10934  2.82903  0.367945
 7735.62  14.7915  1  4.10909  2.8289  0.370419
 7735.87  14.791  1.0  4.10889  2.82888  0.373028
 7736.12  14.7905  1  4.10847  2.82875  0.375673
 7736.37  14.79  1.0  4.10811  2.82866  0.378279
 7736.62  14.7895  1  4.108  2.82856  0.380895
 7736.87  14.7891  1.0  4.10769  2.8285  0.383369
 7737.12  14.7886  1  4.10717  2.82825  0.385699
 7737.37  14.7881  1.0  4.10697  2.82817  0.387871
 7737.62  14.7876  1  4.1067  2.82814  0.389882
 7737.87  14.7871  1.0  4.10632  2.8279  0.391669
 7738.12  14.7866  1  4.10595  2.82782  0.393372
 7738.37  14.7861  1.0  4.10561  2.82775  0.394911
 7738.62  14.7856  1  4.10543  2.82768  0.396351
 7738.87  14.7851  1.0  4.10518  2.82763  0.397674
 7739.12  14.7847  1  4.10492  2.8276  0.398965
 7739.37  14.7842  1.0  4.10461  2.82741  0.400264
 7739.62  14.7837  1  4.10424  2.82726  0.401484
 7739.87  14.7832  1.0  4.10396  2.82722  0.402718
 7740.12  14.7827  1  4.10367  2.82704  0.403863
 7740.37  14.7822  1.0  4.10336  2.82692  0.404952
 7740.62  14.7817  1  4.10304  2.82675  0.406
 7740.87  14.7812  1.0  4.10273  2.82672  0.406991
 7741.12  14.7807  1  4.1025  2.82664  0.407949
 7741.37  14.7803  1.0  4.10211  2.82648  0.408792
 7741.62  14.7798  1  4.1019  2.82644  0.409658
 7741.87  14.7793  1.0  4.10162  2.82639  0.410429
 7742.12  14.7788  1  4.1012  2.82624  0.411187
 7742.37  14.7783  1.0  4.10091  2.82613  0.411974
 7742.62  14.7778  1  4.10055  2.82591  0.412788
 7742.87  14.7773  1.0  4.1003  2.8259  0.413535
 7743.12  14.7768  1  4.10007  2.82577  0.414359
 7743.37  14.7764  1.0  4.09973  2.82573  0.415163
 7743.62  14.7759  1  4.09937  2.82559  0.415926
 7743.87  14.7754  1.0  4.09915  2.82549  0.416686
 7744.12  14.7749  1  4.09887  2.8254  0.41737
 7744.37  14.7744  1.0  4.09854  2.82529  0.417986
 7744.62  14.7739  1  4.0982  2.82515  0.418449
 7744.87  14.7734  1.0  4.09792  2.82508  0.418843
 7745.12  14.7729  1  4.09763  2.82493  0.419057
 7745.37  14.7725  1.0  4.09732  2.82484  0.419128
 7745.62  14.772  1  4.09709  2.82481  0.419015
 7745.87  14.7715  1.0  4.09689  2.82476  0.418716
 7746.12  14.771  1  4.09653  2.82463  0.418209
 7746.37  14.7705  1.0  4.09613  2.82451  0.417532
 7746.62  14.77  1  4.09587  2.82436  0.416609
 7746.87  14.7695  1.0  4.09562  2.82435  0.415527
 7747.12  14.769  1  4.0954  2.82429  0.414286
 7747.37  14.7686  1.0  4.09509  2.82408  0.412791
 7747.62  14.7681  1  4.09477  2.82406  0.41116
 7747.87  14.7676  1.0  4.09443  2.82389  0.40942
 7748.12  14.7671  1  4.09412  2.82377  0.407463
 7748.37  14.7666  1.0  4.09391  2.82371  0.405429
 7748.62  14.7661  1  4.09361  2.82358  0.403239
 7748.87  14.7656  1.0  4.09327  2.82349  0.40097
 7749.12  14.7651  1  4.09316  2.82346  0.398567
 7749.37  14.7647  1.0  4.09287  2.82336  0.396115
 7749.62  14.7642  1  4.09246  2.82334  0.393538
 7749.87  14.7637  1.0  4.09225  2.82315  0.390907
 7750.12  14.7632  1  4.09179  2.82302  0.388174
 7750.37  14.7627  1.0  4.09146  2.82285  0.385394
 7750.62  14.7622  1  4.09126  2.82274  0.382597
 7750.87  14.7617  1.0  4.09092  2.8227  0.379722
 7751.12  14.7612  1  4.09071  2.8227  0.376811
 7751.37  14.7608  1.0  4.09042  2.82263  0.3739
 7751.62  14.7603  1  4.09016  2.82251  0.37096
 7751.87  14.7598  1.0  4.08984  2.82236  0.368056
 7752.12  14.7593  1  4.08955  2.82226  0.365168
 7752.37  14.7588  1.0  4.08922  2.82213  0.362292
 7752.62  14.7583  1  4.08901  2.82198  0.359462
 7752.87  14.7578  1.0  4.08869  2.82194  0.356653
 7753.12  14.7574  1  4.08839  2.82188  0.353906
 7753.37  14.7569  1.0  4.08821  2.82183  0.351241
 7753.62  14.7564  1  4.08776  2.82166  0.34863
 7753.87  14.7559  1.0  4.08748  2.82149  0.346077
 7754.12  14.7554  1  4.08713  2.8214  0.34364
 7754.37  14.7549  1.0  4.08682  2.82125  0.341354
 7754.62  14.7544  1  4.08663  2.82129  0.3391
 7754.87  14.7539  1.0  4.08626  2.82122  0.337003
 7755.12  14.7535  1  4.08603  2.82101  0.335021
 7755.37  14.753  1.0  4.08567  2.82093  0.333197
 7755.62  14.7525  1  4.08565  2.82097  0.331478
 7755.87  14.752  1.0  4.08529  2.82089  0.329959
 7756.12  14.7515  1  4.08495  2.82069  0.328597
 7756.37  14.751  1.0  4.08473  2.8206  0.32736
 7756.62  14.7505  1  4.08434  2.82044  0.326312
 7756.87  14.7501  1.0  4.08404  2.82036  0.325419
 7757.12  14.7496  1  4.08379  2.82038  0.324734
 7757.37  14.7491  1.0  4.08341  2.82015  0.324161
 7757.62  14.7486  1  4.08309  2.82008  0.323778
 7757.87  14.7481  1.0  4.08283  2.81986  0.323557
 7758.11  14.7476  1  4.08246  2.8198  0.32346
 7758.37  14.7471  1.0  4.08218  2.8197  0.323543
 7758.62  14.7467  1  4.08196  2.81968  0.323752
 7768.62  14.7272  1.0  4.07322  2.81768  0.411859
 7778.62  14.7079  1  4.0644  2.81565  0.448765
 7788.61  14.6886  1.0  4.05573  2.81358  0.417895
 7798.61  14.6693  1  4.04694  2.81145  0.372424
 7808.61  14.6501  1.0  4.03814  2.80932  0.325719
 7818.61  14.631  1  4.02963  2.80733  0.379205
 7828.61  14.6119  1.0  4.02117  2.8053  0.451258
 7838.61  14.5928  1  3.98412  2.78327  0.459696
 7848.61  14.5738  1.0  4.00082  2.79879  0.447138
 7858.61  14.5549  1  3.99402  2.79793  0.420868
 7868.61  14.5359  1.0  3.98559  2.79586  0.36343
 7878.6  14.5171  1  3.97707  2.79373  0.349712
 7888.6  14.4983  1.0  3.96851  2.79144  0.419733
 7898.6  14.4795  1  3.95987  2.78907  0.501581
 7908.6  14.4608  1.0  3.9514  2.78681  0.47339
 7918.6  14.4422  1  3.94268  2.78446  0.451257
 7928.6  14.4236  1.0  3.93288  2.78112  0.454123
 7938.6  14.405  1  3.78313  2.67875  0.439318
 7948.6  14.3865  1.0  3.91785  2.77778  0.430883
 7958.6  14.368  1  3.90832  2.77463  0.414711
 7968.6  14.3496  1.0  3.90003  2.77236  0.444067
 7978.59  14.3312  1  3.89142  2.76984  0.483577
 7988.59  14.3129  1.0  3.89213  2.77391  0.500986
 7998.59  14.2947  1  3.88351  2.77127  0.513027
 8008.59  14.2764  1.0  3.87483  2.76861  0.50538
 8018.59  14.2582  1  3.86619  2.7659  0.495616
 8028.59  14.2401  1.0  3.85737  2.76305  0.490854
 8038.59  14.222  1  3.84846  2.7602  0.483904
 8048.59  14.204  1.0  3.83951  2.7571  0.483452
 8058.59  14.186  1  3.82946  2.75334  0.495687
 8068.58  14.168  1.0  3.68709  2.65423  0.495044
 8078.58  14.1501  1  3.80342  2.74134  0.520066
 8088.58  14.1323  1.0  3.81096  2.7502  0.536044
 8098.58  14.1145  1  3.8012  2.74639  0.544983
 8108.58  14.0967  1.0  3.7923  2.74326  0.547727
 8118.58  14.079  1  3.78364  2.74028  0.546539
 8128.58  14.0613  1.0  3.77505  2.73732  0.541935
 8138.58  14.0437  1  3.76648  2.73441  0.54063
 8148.58  14.0261  1.0  3.75796  2.73149  0.540882
 8158.58  14.0086  1  3.74956  2.72858  0.546537
 8168.57  13.9911  1.0  3.74113  2.72563  0.556687
 8178.57  13.9736  1  3.73269  2.72254  0.563652
 8188.57  13.9562  1.0  3.72428  2.71963  0.568139
 8198.57  13.9388  1  3.71599  2.71671  0.574813
 8208.57  13.9215  1.0  3.70773  2.71379  0.582459
 8218.57  13.9042  1  3.69951  2.71083  0.589556
 8228.57  13.887  1.0  3.69125  2.70788  0.595405
 8238.57  13.8698  1  3.68303  2.70493  0.597356
 8248.57  13.8527  1.0  3.67491  2.70199  0.596823
 8258.56  13.8356  1  3.66685  2.6991  0.595098
 8268.56  13.8185  1.0  3.65884  2.69623  0.596195
 8278.57  13.8015  1  3.61848  2.66949  0.596346
 8288.56  13.7845  1.0  3.64205  2.68981  0.608391
 8298.56  13.7676  1  3.63409  2.6869  0.61498
 8308.56  13.7507  1.0  3.62618  2.68392  0.620732
 8318.56  13.7338  1  3.61819  2.68099  0.625389
 8328.56  13.717  1.0  3.61004  2.67784  0.63038
 8338.56  13.7002  1  3.60133  2.67426  0.635223
 8348.56  13.6835  1.0  3.59268  2.67068  0.639521
 8358.55  13.6668  1  3.58465  2.66756  0.643329
 8368.56  13.6502  1.0  3.57681  2.6645  0.646804
 8378.56  13.6336  1  3.56883  2.6614  0.649646
 8388.56  13.617  1.0  3.56082  2.65826  0.652001
 8398.55  13.6005  1  3.55282  2.65504  0.654735
 8408.55  13.584  1.0  3.54495  2.65191  0.658044
 8418.55  13.5675  1  3.53695  2.64865  0.662057
 8428.55  13.5511  1.0  3.52903  2.64553  0.666546
 8438.55  13.5348  1  3.52126  2.64232  0.671316
 8448.55  13.5185  1.0  3.51325  2.63909  0.675995
 8458.55  13.5022  1  3.50536  2.63577  0.680646
 8468.55  13.4859  1.0  3.49749  2.63252  0.685101
 8478.54  13.4697  1  3.48982  2.62933  0.689517
 8488.54  13.4536  1.0  3.48197  2.62602  0.693865
 8498.54  13.4374  1  3.47409  2.62273  0.697942
 8508.54  13.4214  1.0  3.46603  2.61923  0.701451
 8518.54  13.4053  1  3.4582  2.61595  0.704591
 8528.54  13.3893  1.0  3.45028  2.61254  0.707712
 8538.54  13.3733  1  3.44241  2.60915  0.711086
 8548.54  13.3574  1.0  3.43422  2.60546  0.714612
 8558.54  13.3415  1  3.426  2.60174  0.718047
 8568.54  13.3256  1.0  3.41736  2.59757  0.721212
 8578.53  13.3098  1  3.40514  2.59086  0.723825
 8588.53  13.294  1.0  3.37085  2.56728  0.722271
 8598.53  13.2783  1  3.38996  2.58415  0.731991
 8608.53  13.2626  1.0  3.36134  2.56484  0.731481
 8618.53  13.2469  1  3.09095  2.36082  0.678105
 8628.53  13.2313  1.0  3.38689  2.58912  0.748312
 8638.53  13.2157  1  3.3752  2.58264  0.751165
 8648.53  13.2002  1.0  3.11704  2.38723  0.69883
 8658.53  13.1846  1  3.36139  2.57691  0.758754
 8668.52  13.1692  1.0  3.35349  2.57316  0.762112
 8678.52  13.1537  1  3.34551  2.56938  0.765324
 8688.52  13.1383  1.0  3.33769  2.56575  0.768566
 8698.52  13.1229  1  3.32992  2.56203  0.771962
 8708.52  13.1076  1.0  3.32229  2.55847  0.775456
 8718.52  13.0923  1  3.3149  2.55508  0.77902
 8728.52  13.077  1.0  3.30745  2.55165  0.782515
 8738.52  13.0618  1  3.29992  2.54811  0.78603
 8748.52  13.0466  1.0  3.29251  2.54461  0.789562
 8758.52  13.0314  1  3.2851  2.54113  0.793218
 8768.51  13.0163  1.0  3.2778  2.53771  0.796899
 8778.51  13.0012  1  3.27063  2.5343  0.80067
 8788.51  12.9862  1.0  3.26313  2.53079  0.804344
 8798.51  12.9712  1  3.25594  2.52723  0.808061
 8808.51  12.9562  1.0  3.24859  2.52378  0.811749
 8818.51  12.9413  1  3.24138  2.52043  0.81542
 8828.51  12.9263  1.0  3.23423  2.5169  0.819005
 8838.51  12.9115  1  3.22701  2.51347  0.822482
 8848.5  12.8966  1.0  3.21966  2.50987  0.82584
 8858.5  12.8818  1  3.21241  2.50628  0.829215
 8868.5  12.867  1.0  3.20512  2.50272  0.832622
 8878.5  12.8523  1  3.19792  2.49917  0.836049
 8888.5  12.8376  1.0  3.19064  2.49558  0.839395
 8898.5  12.8229  1  3.18316  2.49181  0.842843
 8908.5  12.8083  1.0  3.17513  2.4875  0.846081
 8918.5  12.7937  1  3.15835  2.47643  0.846969
 8928.49  12.7791  1.0  3.16489  2.48361  0.854117
 8938.49  12.7646  1  3.15653  2.47896  0.8573