File: MEX1_29689_processed.xdi
# XDI/1.0
# Mono.d_spacing: 3.13897
# Reference.Element: Pb
# ROI.start_bin: nan
# ROI.end_bin: nan
# Element.symbol: None
# Element.edge: None
# Processing.version: spec_processing_library v0.3.5
# Column.1: energy
# Column.2: bragg
# Column.3: count_time seconds
# Column.4: i0
# Column.5: i1
# Column.6: i2
# Describe.Column.1: energy - MEX1ES01ZEB01:CALC_ENERGY_EV
# Describe.Column.2: bragg - MEX1ES01ZEB01:BRAGG_WITH_OFFSET
# Describe.Column.3: count_time - MEX1ES01ZEB01:GATE_TIME_SET
# Describe.Column.4: i0 - MEX1ES01DAQ01:ch1:S:MeanValue_RBV
# Describe.Column.5: i1 - MEX1ES01DAQ01:ch2:S:MeanValue_RBV
# Describe.Column.6: i2 - MEX1ES01DAQ01:ch3:S:MeanValue_RBV
# Samples: [417, 417, 417, 417, 417, 417]
# ///
# Pb foil
#
# xdi from default mda2xdi preset for mex1.
#--------
#  energy   bragg   count_time   i0   i1   i2
 12833.9  8.85202  1  2.38887  2.19803  3.81743
 12843.9  8.84506  1.0  2.37991  2.19032  3.81291
 12853.9  8.83812  1  2.37315  2.18452  3.81149
 12863.9  8.83119  1.0  2.36312  2.17565  3.80476
 12873.9  8.82428  1  2.35634  2.16982  3.80262
 12883.9  8.81738  1.0  2.35008  2.16443  3.80234
 12893.9  8.81048  1  2.34214  2.15734  3.79891
 12903.9  8.8036  1.0  2.33411  2.15035  3.79421
 12913.9  8.79673  1  2.32354  2.1412  3.78605
 12923.9  8.78987  1.0  2.31574  2.13428  3.7815
 12933.9  8.78303  1  2.28925  2.11032  3.7466
 12943.9  8.77618  1.0  2.3039  2.12415  3.77822
 12953.9  8.76936  1  2.28853  2.11035  3.75999
 12963.9  8.76254  1.0  2.28763  2.10995  3.76421
 12973.9  8.75574  1  2.27909  2.10233  3.75423
 12983.9  8.74894  1.0  2.27275  2.09675  3.74441
 12993.9  8.74216  1  2.26497  2.0901  3.72878
 13003.9  8.73538  1.0  2.2572  2.08316  3.70501
 13013.9  8.72862  1  2.24942  2.07638  3.66214
 13014.1  8.72846  1.0  2.24911  2.07615  3.66048
 13014.4  8.7283  1  2.25197  2.0788  3.66404
 13014.6  8.72813  1.0  2.25388  2.08059  3.66603
 13014.9  8.72796  1  2.25302  2.07994  3.66338
 13015.1  8.72779  1.0  2.25348  2.08015  3.66261
 13015.4  8.72762  1  2.25327  2.08009  3.66074
 13015.6  8.72745  1.0  2.25296  2.0798  3.65935
 13015.9  8.72728  1  2.25269  2.07948  3.65686
 13016.1  8.72712  1.0  2.25248  2.07935  3.65536
 13016.4  8.72695  1  2.25229  2.07909  3.65342
 13016.6  8.72678  1.0  2.25199  2.07899  3.65122
 13016.9  8.72661  1  2.25165  2.07865  3.64941
 13017.1  8.72644  1.0  2.25134  2.07849  3.64731
 13017.4  8.72627  1  2.25134  2.07836  3.64521
 13017.6  8.7261  1.0  2.25106  2.07811  3.64326
 13017.9  8.72593  1  2.25083  2.07782  3.64098
 13018.1  8.72576  1.0  2.25066  2.07774  3.63872
 13018.4  8.7256  1  2.25045  2.07745  3.63668
 13018.6  8.72543  1.0  2.25003  2.0773  3.63407
 13018.9  8.72526  1  2.24976  2.077  3.63178
 13019.1  8.72509  1.0  2.24965  2.07674  3.62909
 13019.4  8.72492  1  2.2494  2.07669  3.62698
 13019.6  8.72475  1.0  2.24905  2.07644  3.62417
 13019.9  8.72458  1  2.24902  2.07617  3.6217
 13020.1  8.72441  1.0  2.24866  2.07599  3.61878
 13020.4  8.72424  1  2.24834  2.07566  3.61605
 13020.6  8.72408  1.0  2.24814  2.07554  3.61282
 13020.9  8.72391  1  2.24732  2.07482  3.60913
 13021.1  8.72374  1.0  2.24779  2.0752  3.60704
 13021.4  8.72357  1  2.24751  2.07508  3.6039
 13021.6  8.7234  1.0  2.24734  2.07476  3.60047
 13021.9  8.72323  1  2.24709  2.07457  3.59733
 13022.1  8.72306  1.0  2.24668  2.07428  3.59384
 13022.4  8.72289  1  2.24654  2.0741  3.59024
 13022.6  8.72272  1.0  2.24632  2.07391  3.58659
 13022.9  8.72256  1  2.24613  2.07372  3.58288
 13023.1  8.72239  1.0  2.24593  2.07351  3.57885
 13023.4  8.72222  1  2.24562  2.07323  3.57489
 13023.6  8.72205  1.0  2.2454  2.07317  3.57083
 13023.9  8.72188  1  2.24525  2.07301  3.56672
 13024.1  8.72171  1.0  2.24501  2.07292  3.56231
 13024.4  8.72154  1  2.24491  2.07261  3.55747
 13024.6  8.72137  1.0  2.2446  2.07241  3.55277
 13024.9  8.72121  1  2.24434  2.07204  3.54762
 13025.1  8.72104  1.0  2.24401  2.07186  3.54254
 13025.4  8.72087  1  2.24386  2.07166  3.53741
 13025.6  8.7207  1.0  2.24353  2.07149  3.53188
 13025.9  8.72053  1  2.24328  2.07127  3.52589
 13026.1  8.72036  1.0  2.24297  2.071  3.51974
 13026.4  8.7202  1  2.24276  2.07076  3.51342
 13026.6  8.72003  1.0  2.24259  2.07057  3.50699
 13026.9  8.71986  1  2.2424  2.07027  3.49997
 13027.1  8.71969  1.0  2.24213  2.07027  3.49318
 13027.4  8.71952  1  2.24195  2.07007  3.48543
 13027.6  8.71935  1.0  2.24173  2.06994  3.47737
 13027.9  8.71918  1  2.24152  2.06969  3.4693
 13028.1  8.71902  1.0  2.24129  2.06946  3.46063
 13028.4  8.71885  1  2.24105  2.06925  3.45165
 13028.6  8.71868  1.0  2.24075  2.069  3.44184
 13028.9  8.71851  1  2.24052  2.06873  3.43159
 13029.1  8.71834  1.0  2.24023  2.06854  3.42084
 13029.4  8.71817  1  2.24014  2.06828  3.40951
 13029.6  8.718  1.0  2.23987  2.06814  3.39771
 13029.9  8.71783  1  2.23954  2.06792  3.38472
 13030.1  8.71767  1.0  2.23952  2.06791  3.37148
 13030.4  8.7175  1  2.23923  2.06758  3.35732
 13030.6  8.71733  1.0  2.23898  2.0674  3.34206
 13030.9  8.71716  1  2.23871  2.06721  3.32551
 13031.1  8.71699  1.0  2.23845  2.06706  3.30816
 13031.4  8.71682  1  2.23819  2.06671  3.29008
 13031.6  8.71665  1.0  2.238  2.06656  3.27006
 13031.9  8.71649  1  2.2377  2.06627  3.24944
 13032.1  8.71632  1.0  2.23743  2.06607  3.22724
 13032.4  8.71615  1  2.2374  2.066  3.20417
 13032.6  8.71598  1.0  2.23712  2.06574  3.17969
 13032.9  8.71581  1  2.23671  2.06542  3.15387
 13033.1  8.71564  1.0  2.23666  2.06528  3.12703
 13033.4  8.71548  1  2.2364  2.0653  3.09911
 13033.6  8.71531  1.0  2.23621  2.06493  3.06937
 13033.9  8.71514  1  2.23592  2.06475  3.03932
 13034.1  8.71497  1.0  2.23559  2.06452  3.00795
 13034.4  8.7148  1  2.23528  2.0642  2.97558
 13034.6  8.71463  1.0  2.23506  2.06395  2.94345
 13034.9  8.71446  1  2.23484  2.06374  2.91019
 13035.1  8.7143  1.0  2.23465  2.06354  2.87709
 13035.4  8.71413  1  2.23438  2.06328  2.84334
 13035.6  8.71396  1.0  2.23396  2.06306  2.80989
 13035.9  8.71379  1  2.23386  2.06284  2.77619
 13036.1  8.71362  1.0  2.23364  2.06285  2.74273
 13036.4  8.71346  1  2.23367  2.06277  2.70947
 13036.6  8.71329  1.0  2.2334  2.06247  2.67537
 13036.9  8.71312  1  2.23316  2.06228  2.64174
 13037.1  8.71295  1.0  2.23282  2.06192  2.60755
 13037.4  8.71278  1  2.23259  2.06162  2.5735
 13037.6  8.71261  1.0  2.23234  2.06159  2.53954
 13037.9  8.71244  1  2.23202  2.06131  2.50448
 13038.1  8.71228  1.0  2.23186  2.06112  2.46964
 13038.4  8.71211  1  2.23157  2.06098  2.43386
 13038.6  8.71194  1.0  2.23139  2.06066  2.39741
 13038.9  8.71177  1  2.23103  2.06032  2.36046
 13039.1  8.7116  1.0  2.23102  2.06026  2.32359
 13039.4  8.71143  1  2.23079  2.06014  2.28486
 13039.6  8.71127  1.0  2.23053  2.05992  2.24571
 13039.9  8.7111  1  2.2302  2.05975  2.20586
 13040.1  8.71093  1.0  2.23  2.05948  2.16457
 13040.4  8.71076  1  2.22986  2.05932  2.12387
 13040.6  8.71059  1.0  2.22954  2.05915  2.08192
 13040.9  8.71042  1  2.22934  2.05889  2.04057
 13041.1  8.71026  1.0  2.22906  2.05869  1.99888
 13041.4  8.71009  1  2.22881  2.05847  1.95667
 13041.6  8.70992  1.0  2.22859  2.05827  1.91527
 13041.9  8.70975  1  2.22836  2.05806  1.87446
 13042.1  8.70959  1.0  2.22809  2.05785  1.83351
 13042.4  8.70942  1  2.22784  2.05757  1.79338
 13042.6  8.70925  1.0  2.22774  2.05741  1.75419
 13042.9  8.70908  1  2.22747  2.05724  1.71583
 13043.1  8.70891  1.0  2.22714  2.05707  1.67776
 13043.4  8.70874  1  2.227  2.05674  1.64129
 13043.6  8.70858  1.0  2.22676  2.05659  1.60608
 13043.9  8.70841  1  2.22637  2.05632  1.57173
 13044.1  8.70824  1.0  2.22622  2.05615  1.53898
 13044.4  8.70807  1  2.22606  2.05589  1.50808
 13044.6  8.7079  1.0  2.22573  2.05579  1.47844
 13044.9  8.70773  1  2.22551  2.05547  1.4501
 13045.1  8.70757  1.0  2.22534  2.0554  1.4239
 13045.4  8.7074  1  2.2251  2.05515  1.39923
 13045.6  8.70723  1.0  2.22502  2.05499  1.37607
 13045.9  8.70706  1  2.22471  2.05495  1.35516
 13046.1  8.70689  1.0  2.22445  2.05454  1.33587
 13046.4  8.70673  1  2.22414  2.05426  1.31843
 13046.6  8.70656  1.0  2.2239  2.05411  1.30253
 13046.9  8.70639  1  2.22373  2.05391  1.2887
 13047.1  8.70622  1.0  2.2235  2.05363  1.27635
 13047.4  8.70605  1  2.22324  2.05353  1.26581
 13047.6  8.70588  1.0  2.2229  2.05328  1.25646
 13047.9  8.70572  1  2.22272  2.05306  1.2486
 13048.1  8.70555  1.0  2.2227  2.053  1.24186
 13048.4  8.70538  1  2.22224  2.05262  1.23633
 13048.6  8.70521  1.0  2.2276  2.05755  1.23443
 13048.9  8.70504  1  2.22727  2.05721  1.23054
 13049.1  8.70488  1.0  2.22699  2.05704  1.22733
 13049.4  8.70471  1  2.22679  2.05683  1.22441
 13049.6  8.70454  1.0  2.22657  2.05672  1.22214
 13049.9  8.70437  1  2.22623  2.05648  1.22033
 13050.1  8.7042  1.0  2.22595  2.05617  1.21869
 13050.4  8.70404  1  2.22583  2.05592  1.21721
 13050.6  8.70387  1.0  2.22563  2.05584  1.21574
 13050.9  8.7037  1  2.22545  2.05559  1.21424
 13051.1  8.70353  1.0  2.22499  2.05532  1.21295
 13051.4  8.70336  1  2.22458  2.05497  1.21132
 13051.6  8.7032  1.0  2.22457  2.05493  1.20968
 13051.9  8.70303  1  2.2245  2.05477  1.208
 13052.1  8.70286  1.0  2.22411  2.0546  1.20603
 13052.4  8.70269  1  2.22395  2.05424  1.20374
 13052.6  8.70252  1.0  2.2237  2.05402  1.20125
 13052.9  8.70236  1  2.22343  2.0539  1.19882
 13053.1  8.70219  1.0  2.22321  2.05367  1.19629
 13053.4  8.70202  1  2.22295  2.05357  1.19331
 13053.6  8.70185  1.0  2.22287  2.0533  1.19032
 13053.9  8.70168  1  2.22257  2.0531  1.18723
 13054.1  8.70152  1.0  2.22228  2.0529  1.18388
 13054.4  8.70135  1  2.22183  2.05252  1.18032
 13054.6  8.70118  1.0  2.2218  2.05248  1.17695
 13054.9  8.70101  1  2.22159  2.05221  1.17332
 13055.1  8.70084  1.0  2.22135  2.05197  1.16946
 13055.4  8.70068  1  2.22103  2.05183  1.16564
 13055.6  8.70051  1.0  2.22064  2.05143  1.16165
 13055.9  8.70034  1  2.22047  2.05124  1.15753
 13056.1  8.70017  1.0  2.2203  2.05104  1.15348
 13056.4  8.70001  1  2.21996  2.05086  1.14922
 13056.6  8.69984  1.0  2.2198  2.05058  1.14494
 13056.9  8.69967  1  2.21954  2.05047  1.14038
 13057.1  8.6995  1.0  2.21941  2.05022  1.13599
 13057.4  8.69933  1  2.21918  2.05012  1.13142
 13057.6  8.69917  1.0  2.21864  2.04967  1.1271
 13057.9  8.699  1  2.21879  2.04991  1.12272
 13058.1  8.69883  1.0  2.2187  2.04972  1.11847
 13058.4  8.69866  1  2.21834  2.04936  1.11412
 13058.6  8.6985  1.0  2.21819  2.04914  1.10999
 13058.9  8.69833  1  2.21796  2.04897  1.10621
 13059.1  8.69816  1.0  2.21773  2.04878  1.1023
 13059.4  8.69799  1  2.21751  2.04869  1.09871
 13059.6  8.69782  1.0  2.21735  2.04857  1.09535
 13059.9  8.69766  1  2.21704  2.04841  1.09239
 13060.1  8.69749  1.0  2.2168  2.04808  1.0896
 13060.4  8.69732  1  2.21674  2.04799  1.08711
 13060.6  8.69715  1.0  2.21623  2.04749  1.08516
 13060.9  8.69699  1  2.21632  2.04746  1.08345
 13061.1  8.69682  1.0  2.21596  2.04741  1.08214
 13061.4  8.69665  1  2.21564  2.047  1.08123
 13061.6  8.69648  1.0  2.21538  2.04685  1.08061
 13061.9  8.69632  1  2.2153  2.04674  1.08012
 13062.1  8.69615  1.0  2.2151  2.04656  1.08013
 13062.4  8.69598  1  2.21495  2.0464  1.0805
 13062.6  8.69581  1.0  2.21463  2.04607  1.08102
 13062.9  8.69565  1  2.21431  2.04588  1.08174
 13063.1  8.69548  1.0  2.21412  2.04572  1.08281
 13063.4  8.69531  1  2.21391  2.0455  1.08392
 13063.6  8.69514  1.0  2.21371  2.04531  1.08545
 13063.9  8.69497  1  2.21348  2.04517  1.08684
 13064.1  8.69481  1.0  2.21326  2.04491  1.08876
 13064.4  8.69464  1  2.21294  2.0448  1.09028
 13064.6  8.69447  1.0  2.21277  2.04457  1.09217
 13064.9  8.6943  1  2.21261  2.04432  1.09419
 13065.1  8.69413  1.0  2.21223  2.04399  1.09607
 13065.4  8.69397  1  2.21211  2.04387  1.09816
 13065.6  8.6938  1.0  2.21185  2.04365  1.10039
 13065.9  8.69363  1  2.21157  2.04345  1.10235
 13066.1  8.69346  1.0  2.21137  2.0432  1.10432
 13066.4  8.6933  1  2.21103  2.04296  1.10655
 13066.6  8.69313  1.0  2.21084  2.04281  1.10839
 13066.9  8.69296  1  2.21051  2.0426  1.11019
 13067.1  8.69279  1.0  2.21017  2.04218  1.11191
 13067.4  8.69263  1  2.20976  2.04181  1.11355
 13067.6  8.69246  1.0  2.2095  2.04149  1.11491
 13067.9  8.69229  1  2.20896  2.0412  1.1163
 13068.1  8.69213  1.0  2.20838  2.04056  1.11725
 13068.4  8.69196  1  2.20766  2.03988  1.11813
 13068.6  8.69179  1.0  2.20684  2.03926  1.1186
 13068.9  8.69162  1  2.20627  2.03853  1.11898
 13069.1  8.69145  1.0  2.20559  2.03804  1.11932
 13069.4  8.69129  1  2.20515  2.03771  1.1195
 13069.6  8.69112  1.0  2.20489  2.03741  1.11954
 13069.9  8.69095  1  2.2046  2.03719  1.11971
 13070.1  8.69078  1.0  2.20455  2.03704  1.11942
 13070.4  8.69062  1  2.2045  2.03714  1.11932
 13070.6  8.69045  1.0  2.20468  2.03723  1.11917
 13070.9  8.69028  1  2.20493  2.03747  1.11884
 13071.1  8.69011  1.0  2.20525  2.03776  1.11857
 13071.4  8.68995  1  2.20559  2.03807  1.11808
 13071.6  8.68978  1.0  2.20569  2.03817  1.11761
 13071.9  8.68961  1  2.20564  2.03818  1.11684
 13072.1  8.68945  1.0  2.20545  2.03813  1.11625
 13072.4  8.68928  1  2.20536  2.03787  1.11554
 13072.6  8.68911  1.0  2.20505  2.03774  1.11467
 13072.9  8.68894  1  2.205  2.03754  1.11389
 13073.1  8.68878  1.0  2.20465  2.03724  1.11288
 13073.4  8.68861  1  2.20445  2.03714  1.11235
 13073.6  8.68844  1.0  2.20424  2.03698  1.11134
 13073.9  8.68827  1  2.20406  2.03674  1.11077
 13074.1  8.6881  1.0  2.20377  2.03666  1.11002
 13074.4  8.68794  1  2.20378  2.03648  1.10931
 13074.6  8.68777  1.0  2.2035  2.03619  1.10858
 13074.9  8.6876  1  2.20324  2.03597  1.10788
 13075.1  8.68744  1.0  2.20304  2.03581  1.10734
 13075.4  8.68727  1  2.20266  2.03565  1.10669
 13075.6  8.6871  1.0  2.20251  2.0353  1.10592
 13075.9  8.68693  1  2.20213  2.03508  1.10529
 13076.1  8.68677  1.0  2.20196  2.03489  1.10449
 13076.4  8.6866  1  2.20178  2.03461  1.10386
 13076.6  8.68643  1.0  2.20142  2.0344  1.10311
 13076.9  8.68626  1  2.20104  2.03408  1.10236
 13077.1  8.6861  1.0  2.20076  2.03375  1.10147
 13077.4  8.68593  1  2.20051  2.03354  1.10071
 13077.6  8.68576  1.0  2.20002  2.03316  1.10002
 13077.9  8.68559  1  2.19969  2.03287  1.0987
 13078.1  8.68543  1.0  2.19913  2.03231  1.09805
 13078.4  8.68526  1  2.19851  2.03179  1.09662
 13078.6  8.68509  1.0  2.1978  2.03117  1.09574
 13078.9  8.68493  1  2.19704  2.03051  1.09446
 13079.1  8.68476  1.0  2.1963  2.02976  1.09322
 13079.4  8.68459  1  2.19585  2.02927  1.09212
 13079.6  8.68443  1.0  2.19531  2.02887  1.09094
 13079.9  8.68426  1  2.19504  2.02868  1.08993
 13080.1  8.68409  1.0  2.1948  2.02831  1.08867
 13080.4  8.68392  1  2.1946  2.02832  1.08781
 13080.6  8.68375  1.0  2.19477  2.02826  1.08652
 13080.9  8.68359  1  2.19477  2.02849  1.08575
 13081.1  8.68342  1.0  2.19511  2.02865  1.08484
 13081.4  8.68325  1  2.19535  2.02891  1.08394
 13081.6  8.68309  1.0  2.19533  2.02904  1.08297
 13081.9  8.68292  1  2.19534  2.02894  1.08169
 13082.1  8.68275  1.0  2.19601  2.0296  1.08109
 13082.4  8.68258  1  2.19981  2.03316  1.08186
 13082.6  8.68242  1.0  2.19906  2.03251  1.08055
 13082.9  8.68225  1  2.19821  2.03187  1.07909
 13083.1  8.68208  1.0  2.19754  2.03114  1.07767
 13083.4  8.68192  1  2.19716  2.03066  1.07665
 13083.6  8.68175  1.0  2.19678  2.03038  1.07539
 13083.9  8.68158  1  2.19646  2.03011  1.07436
 13093.9  8.67488  1.0  2.18888  2.02345  1.0718
 13103.9  8.66822  1  2.18412  2.01939  1.08284
 13113.9  8.66156  1.0  2.17594  2.01213  1.07768
 13123.9  8.65491  1  2.16827  2.00549  1.07435
 13133.9  8.64827  1.0  2.16037  1.99852  1.0814
 13143.9  8.64164  1  2.15252  1.99152  1.08205
 13153.9  8.63502  1.0  2.14462  1.98455  1.08065
 13163.9  8.62841  1  2.13391  1.97498  1.07767
 13173.9  8.62181  1.0  2.12887  1.97062  1.07926
 13183.9  8.61523  1  2.12084  1.96341  1.07906
 13193.9  8.60865  1.0  2.11277  1.9564  1.07948
 13203.9  8.60208  1  2.10482  1.94925  1.08073
 13213.9  8.59553  1.0  2.09731  1.9426  1.08085
 13223.9  8.58897  1  2.08916  1.93548  1.07972
 13233.9  8.58244  1.0  2.08152  1.92866  1.0775
 13243.9  8.57591  1  2.0735  1.92156  1.07596
 13253.9  8.56939  1.0  2.06551  1.91447  1.0754
 13263.9  8.56288  1  2.05758  1.90743  1.07453
 13273.9  8.55638  1.0  2.04942  1.90022  1.07338
 13283.9  8.54989  1  2.04149  1.89309  1.07235
 13293.9  8.54342  1.0  2.03345  1.88592  1.07131
 13303.9  8.53695  1  2.02533  1.87858  1.07094
 13313.9  8.53049  1.0  2.0172  1.87145  1.07095
 13323.9  8.52404  1  2.00891  1.86414  1.07078
 13333.9  8.5176  1.0  2.00089  1.85696  1.07056
 13343.9  8.51117  1  1.99264  1.84964  1.07026
 13353.9  8.50475  1.0  1.98448  1.84225  1.06946
 13363.9  8.49834  1  1.97614  1.83487  1.06883
 13373.9  8.49194  1.0  1.96781  1.82747  1.06847
 13383.9  8.48555  1  1.95961  1.82013  1.0681
 13393.9  8.47917  1.0  1.95128  1.81257  1.0679
 13403.8  8.4728  1  1.94274  1.80496  1.06767
 13413.8  8.46644  1.0  1.93443  1.79754  1.06738
 13423.8  8.46008  1  1.92529  1.78935  1.06629
 13433.8  8.45374  1.0  1.9175  1.7824  1.06617
 13443.8  8.44741  1  1.90904  1.77484  1.06558
 13453.8  8.44108  1.0  1.90034  1.76698  1.06516
 13463.8  8.43477  1  1.8922  1.75964  1.06488
 13473.8  8.42847  1.0  1.88321  1.75156  1.06419
 13483.8  8.42217  1  1.87277  1.74214  1.06237
 13493.8  8.41588  1.0  1.86629  1.73624  1.06286
 13503.8  8.40961  1  1.85748  1.72842  1.06178
 13513.8  8.40334  1.0  1.84877  1.72052  1.06082
 13523.8  8.39709  1  1.83962  1.71255  1.05974
 13533.8  8.39083  1.0  1.82174  1.69606  1.05347
 13543.8  8.3846  1  1.82195  1.69642  1.05764
 13553.8  8.37837  1.0  1.79884  1.67518  1.04819
 13563.8  8.37215  1  1.76993  1.6485  1.0356
 13573.8  8.36594  1.0  1.78767  1.66523  1.04982
 13583.8  8.35974  1  1.78834  1.66608  1.05421
 13593.8  8.35354  1.0  1.7754  1.65436  1.05072
 13603.8  8.34736  1  1.77005  1.64959  1.05171
 13613.8  8.34118  1.0  1.76008  1.64048  1.04991
 13623.8  8.33502  1  1.75117  1.63234  1.04861
 13633.8  8.32886  1.0  1.74187  1.62409  1.0471
 13643.8  8.32272  1  1.73247  1.61538  1.04566
 13653.8  8.31658  1.0  1.72294  1.60692  1.04398
 13663.8  8.31045  1  1.71343  1.59814  1.04214
 13673.8  8.30433  1.0  1.70389  1.58951  1.04064
 13683.8  8.29822  1  1.69429  1.58085  1.03882
 13693.8  8.29212  1.0  1.68451  1.57185  1.03669
 13703.8  8.28603  1  1.67461  1.56296  1.03463
 13713.8  8.27994  1.0  1.66487  1.55399  1.03287
 13723.8  8.27387  1  1.65484  1.54475  1.03062
 13733.8  8.26781  1.0  1.64476  1.53572  1.02814
 13743.8  8.26175  1  1.6347  1.52648  1.02593
 13753.8  8.2557  1.0  1.62446  1.51716  1.02351
 13763.8  8.24966  1  1.61429  1.50778  1.02117
 13773.8  8.24363  1.0  1.60376  1.49818  1.0183
 13783.8  8.23761  1  1.59318  1.4886  1.01542
 13793.8  8.2316  1.0  1.58244  1.47878  1.01253
 13803.8  8.22559  1  1.57165  1.46884  1.00966
 13813.8  8.2196  1.0  1.56059  1.45872  1.00645
 13823.8  8.21361  1  1.54963  1.44863  1.00321
 13833.8  8.20764  1.0  1.53803  1.43805  0.999467
 13843.8  8.20167  1  1.52583  1.42695  0.995429
 13853.8  8.19571  1.0  1.51372  1.41575  0.991313
 13863.8  8.18976  1  1.50319  1.40611  0.98819
 13873.8  8.18382  1.0  1.49245  1.39625  0.984796
 13883.8  8.17788  1  1.48066  1.3854  0.980771
 13893.8  8.17195  1.0  1.46877  1.37448  0.97674
 13903.8  8.16604  1  1.45609  1.36267  0.971968
 13913.8  8.16013  1.0  1.44425  1.35194  0.967975
 13923.8  8.15423  1  1.43184  1.34049  0.963014
 13933.8  8.14834  1.0  1.41941  1.32901  0.958469
 13943.7  8.14246  1  1.40666  1.31723  0.953394
 13953.75  8.13658  1.0  1.39356  1.30518  0.948221
 13963.7  8.13072  1  1.38029  1.29297  0.942657
 13973.7  8.12486  1.0  1.36679  1.28042  0.937156
 13983.7  8.11901  1  1.35303  1.26772  0.931165
 13993.7  8.11317  1.0  1.33887  1.25484  0.925079
 14003.7  8.10735  1  1.3246  1.24157  0.918552
 14013.7  8.10152  1.0  1.30999  1.22795  0.911683
 14023.7  8.0957  1  1.29498  1.21406  0.904813
 14033.7  8.0899  1.0  1.27977  1.19991  0.897333
 14043.7  8.0841  1  1.26395  1.18526  0.889623
 14053.7  8.07831  1.0  1.24728  1.16987  0.881376
 14063.7  8.07253  1  1.20081  1.12653  0.851461
 14073.7  8.06676  1.0  1.21807  1.14268  0.867188
 14083.7  8.06099  1  1.20083  1.12677  0.857918
 14093.7  8.05524  1.0  1.18322  1.11043  0.848393
 14103.7  8.04949  1  1.16192  1.0905  0.836227
 14113.7  8.04375  1.0  1.13841  1.06857  0.822268
 14123.7  8.03802  1  1.12457  1.05575  0.815331
 14133.7  8.03229  1.0  1.1195  1.05111  0.814595
 14143.7  8.02658  1  1.10238  1.03525  0.805101
 14153.7  8.02087  1.0  1.08363  1.01777  0.794464
 14163.7  8.01517  1  1.06359  0.999107  0.782747
 14173.7  8.00948  1.0  1.01201  0.950893  0.747499
 14183.7  8.0038  1  1.03023  0.9681  0.763793
 14193.7  7.99812  1.0  1.01136  0.950468  0.752369
 14203.7  7.99245  1  0.992486  0.932779  0.741053
 14213.7  7.98679  1.0  0.973617  0.915302  0.729742
 14223.7  7.98114  1  0.954907  0.897832  0.718418
 14233.7  7.9755  1.0  0.936134  0.880289  0.70671
 14243.7  7.96987  1  0.917373  0.862888  0.695202
 14253.7  7.96424  1.0  0.898805  0.84547  0.683557
 14263.7  7.95862  1  0.880154  0.82817  0.672007