File: MEX1_29696_processed.xdi
# XDI/1.0
# Mono.d_spacing: 3.13897
# Reference.Element: Ni
# ROI.start_bin: nan
# ROI.end_bin: nan
# Element.symbol: None
# Element.edge: None
# Processing.version: spec_processing_library v0.3.5
# Column.1: energy
# Column.2: bragg
# Column.3: count_time seconds
# Column.4: i0
# Column.5: i1
# Column.6: i2
# Describe.Column.1: energy - MEX1ES01ZEB01:CALC_ENERGY_EV
# Describe.Column.2: bragg - MEX1ES01ZEB01:BRAGG_WITH_OFFSET
# Describe.Column.3: count_time - MEX1ES01ZEB01:GATE_TIME_SET
# Describe.Column.4: i0 - MEX1ES01DAQ01:ch1:S:MeanValue_RBV
# Describe.Column.5: i1 - MEX1ES01DAQ01:ch2:S:MeanValue_RBV
# Describe.Column.6: i2 - MEX1ES01DAQ01:ch3:S:MeanValue_RBV
# Samples: [417, 417, 417, 417, 417, 417]
# ///
# Ni foil
#
# xdi from default mda2xdi preset for mex1.
#--------
#  energy   bragg   count_time   i0   i1   i2
 8132.57  14.0543  1.0  3.76643  2.73261  2.46504
 8142.58  14.0366  1  3.75782  2.72953  2.46887
 8152.58  14.0191  1.0  3.74971  2.72686  2.47317
 8162.58  14.0016  1  3.74164  2.72414  2.47812
 8172.57  13.9841  1.0  3.73362  2.72148  2.48354
 8182.57  13.9666  1  3.72557  2.71877  2.48843
 8192.57  13.9493  1.0  3.71762  2.71609  2.49291
 8202.57  13.9319  1  3.70952  2.71335  2.49738
 8212.57  13.9146  1.0  3.70158  2.71058  2.50227
 8222.57  13.8973  1  3.69362  2.70783  2.50673
 8232.57  13.8801  1.0  3.68576  2.70511  2.51115
 8242.57  13.8629  1  3.67797  2.70251  2.51513
 8252.57  13.8458  1.0  3.67016  2.69972  2.51857
 8262.57  13.8287  1  3.66244  2.69707  2.52154
 8272.56  13.8117  1.0  3.65478  2.69439  2.52412
 8282.56  13.7947  1  3.64564  2.69069  2.52567
 8292.57  13.7777  1.0  3.63849  2.6884  2.52769
 8302.57  13.7608  1  3.63072  2.68564  2.52665
 8312.56  13.7439  1.0  3.63054  2.68839  2.52484
 8312.81  13.7435  1  3.6304  2.68835  2.52456
 8313.06  13.7431  1.0  3.63016  2.68815  2.5241
 8313.31  13.7427  1  3.62981  2.68801  2.52375
 8313.56  13.7422  1.0  3.62957  2.68795  2.5233
 8313.81  13.7418  1  3.62937  2.68781  2.52292
 8314.06  13.7414  1.0  3.62918  2.68775  2.52264
 8314.31  13.741  1  3.62881  2.68756  2.522
 8314.56  13.7406  1.0  3.6286  2.68739  2.5216
 8314.81  13.7401  1  3.62812  2.68723  2.52118
 8315.06  13.7397  1.0  3.62793  2.68713  2.52053
 8315.31  13.7393  1  3.62765  2.68713  2.52014
 8315.56  13.7389  1.0  3.62759  2.68697  2.51963
 8315.81  13.7384  1  3.62749  2.687  2.51923
 8316.06  13.738  1.0  3.62704  2.68674  2.51856
 8316.31  13.7376  1  3.62673  2.68659  2.51795
 8316.56  13.7372  1.0  3.62658  2.68658  2.5174
 8316.81  13.7368  1  3.62637  2.68645  2.51694
 8317.06  13.7363  1.0  3.62603  2.68632  2.51624
 8317.31  13.7359  1  3.62576  2.68619  2.51551
 8317.56  13.7355  1.0  3.62547  2.686  2.51492
 8317.81  13.7351  1  3.62513  2.68584  2.51419
 8318.06  13.7347  1.0  3.62496  2.68582  2.51337
 8318.31  13.7342  1  3.62466  2.68567  2.5127
 8318.56  13.7338  1.0  3.62442  2.68553  2.51195
 8318.81  13.7334  1  3.62405  2.68537  2.51111
 8319.06  13.733  1.0  3.62394  2.68523  2.51029
 8319.31  13.7326  1  3.62364  2.68527  2.50943
 8319.56  13.7321  1.0  3.62339  2.68503  2.50862
 8319.81  13.7317  1  3.6231  2.68496  2.50759
 8320.06  13.7313  1.0  3.62288  2.68491  2.50664
 8320.3  13.7309  1  3.62275  2.68483  2.50571
 8320.56  13.7304  1.0  3.6225  2.68466  2.50472
 8320.81  13.73  1  3.62216  2.68454  2.50351
 8321.06  13.7296  1.0  3.62196  2.68444  2.50243
 8321.31  13.7292  1  3.62172  2.68436  2.50127
 8321.55  13.7288  1.0  3.62138  2.68421  2.4999
 8321.8  13.7283  1  3.62115  2.68407  2.49863
 8322.06  13.7279  1.0  3.62094  2.684  2.49726
 8322.31  13.7275  1  3.62055  2.68386  2.49568
 8322.55  13.7271  1.0  3.62035  2.68372  2.49422
 8322.81  13.7267  1  3.62008  2.68363  2.49265
 8323.06  13.7262  1.0  3.61994  2.68351  2.49101
 8323.3  13.7258  1  3.61966  2.68346  2.48931
 8323.55  13.7254  1.0  3.61949  2.68325  2.48746
 8323.81  13.725  1  3.61906  2.6831  2.4853
 8324.05  13.7246  1.0  3.61877  2.683  2.48318
 8324.3  13.7241  1  3.61852  2.68279  2.4809
 8324.56  13.7237  1.0  3.61832  2.6827  2.47852
 8324.8  13.7233  1  3.61804  2.68266  2.47592
 8325.06  13.7229  1.0  3.61774  2.68243  2.47323
 8325.3  13.7225  1  3.6175  2.68229  2.47021
 8325.55  13.722  1.0  3.61721  2.68226  2.46699
 8325.81  13.7216  1  3.61698  2.68221  2.46351
 8326.05  13.7212  1.0  3.61681  2.68205  2.45981
 8326.31  13.7208  1  3.61647  2.68192  2.45572
 8326.55  13.7204  1.0  3.61621  2.68178  2.45129
 8326.81  13.7199  1  3.61607  2.68172  2.44645
 8327.05  13.7195  1.0  3.61586  2.68157  2.44103
 8327.3  13.7191  1  3.61541  2.68145  2.4349
 8327.55  13.7187  1.0  3.61513  2.68131  2.4281
 8327.8  13.7183  1  3.61501  2.68122  2.42049
 8328.06  13.7178  1.0  3.61479  2.68109  2.41179
 8328.3  13.7174  1  3.61449  2.68094  2.40153
 8328.55  13.717  1.0  3.61413  2.68084  2.38947
 8328.8  13.7166  1  3.61391  2.68075  2.37533
 8329.05  13.7162  1.0  3.61368  2.68065  2.35829
 8329.31  13.7157  1  3.61352  2.68061  2.3371
 8329.55  13.7153  1.0  3.61331  2.68048  2.31035
 8329.8  13.7149  1  3.61298  2.6803  2.27627
 8330.06  13.7145  1.0  3.61271  2.68013  2.2323
 8330.3  13.7141  1  3.61247  2.68006  2.17777
 8330.55  13.7136  1.0  3.61212  2.67994  2.11185
 8330.8  13.7132  1  3.61183  2.6797  2.03614
 8331.05  13.7128  1.0  3.61151  2.67961  1.95348
 8331.3  13.7124  1  3.61126  2.67941  1.86812
 8331.55  13.712  1.0  3.611  2.67933  1.78408
 8331.8  13.7115  1  3.61062  2.67914  1.70377
 8332.05  13.7111  1.0  3.61046  2.67903  1.62939
 8332.3  13.7107  1  3.61015  2.67898  1.56128
 8332.55  13.7103  1.0  3.60983  2.67885  1.49977
 8332.8  13.7099  1  3.60957  2.67863  1.44454
 8333.05  13.7095  1.0  3.60932  2.67856  1.3953
 8333.3  13.709  1  3.60911  2.67837  1.35243
 8333.55  13.7086  1.0  3.60872  2.67818  1.31558
 8333.8  13.7082  1  3.60834  2.67806  1.28434
 8334.05  13.7078  1.0  3.60813  2.678  1.25816
 8334.3  13.7074  1  3.60787  2.67782  1.2361
 8334.55  13.7069  1.0  3.60765  2.67769  1.21734
 8334.8  13.7065  1  3.60752  2.67771  1.20159
 8335.05  13.7061  1.0  3.60714  2.67757  1.18774
 8335.3  13.7057  1  3.60678  2.67732  1.17532
 8335.55  13.7053  1.0  3.60652  2.67721  1.16362
 8335.8  13.7048  1  3.60627  2.67716  1.15196
 8336.05  13.7044  1.0  3.60616  2.67705  1.13957
 8336.3  13.704  1  3.60581  2.67691  1.1257
 8336.55  13.7036  1.0  3.60547  2.6768  1.11015
 8336.8  13.7032  1  3.60528  2.67663  1.09257
 8337.05  13.7027  1.0  3.60506  2.67655  1.07345
 8337.3  13.7023  1  3.60472  2.67633  1.053
 8337.55  13.7019  1.0  3.60438  2.67615  1.03223
 8337.8  13.7015  1  3.6041  2.6761  1.01174
 8338.05  13.7011  1.0  3.60384  2.67595  0.992541
 8338.3  13.7007  1  3.60356  2.67584  0.974411
 8338.55  13.7002  1.0  3.60338  2.67576  0.957537
 8338.8  13.6998  1  3.60306  2.67559  0.941781
 8339.05  13.6994  1.0  3.60282  2.67549  0.926803
 8339.3  13.699  1  3.60253  2.67534  0.912298
 8339.55  13.6986  1.0  3.60223  2.67514  0.897767
 8339.8  13.6981  1  3.60205  2.67518  0.883005
 8340.05  13.6977  1.0  3.60176  2.67495  0.867546
 8340.3  13.6973  1  3.60147  2.67478  0.851191
 8340.55  13.6969  1.0  3.60124  2.67467  0.833887
 8340.8  13.6965  1  3.60094  2.67454  0.815285
 8341.05  13.696  1.0  3.6006  2.67438  0.795735
 8341.3  13.6956  1  3.60034  2.67431  0.775009
 8341.55  13.6952  1.0  3.60009  2.67408  0.75351
 8341.8  13.6948  1  3.59978  2.67401  0.731149
 8342.05  13.6944  1.0  3.5995  2.67381  0.708082
 8342.3  13.694  1  3.59914  2.67371  0.684838
 8342.55  13.6935  1.0  3.59898  2.67354  0.661394
 8342.8  13.6931  1  3.60755  2.68009  0.639704
 8343.05  13.6927  1.0  3.60725  2.67987  0.616413
 8343.3  13.6923  1  3.60693  2.67971  0.5934
 8343.55  13.6919  1.0  3.60658  2.67956  0.570862
 8343.8  13.6914  1  3.60635  2.67949  0.548713
 8344.05  13.691  1.0  3.60597  2.67923  0.527427
 8344.3  13.6906  1  3.60587  2.67925  0.506735
 8344.55  13.6902  1.0  3.60566  2.67912  0.486971
 8344.8  13.6898  1  3.60528  2.679  0.467967
 8345.05  13.6894  1.0  3.60496  2.67883  0.450061
 8345.3  13.6889  1  3.60475  2.67871  0.433167
 8345.55  13.6885  1.0  3.60449  2.67859  0.417692
 8345.8  13.6881  1  3.60418  2.67838  0.403506
 8346.05  13.6877  1.0  3.60389  2.67822  0.39086
 8346.3  13.6873  1  3.60362  2.67811  0.379785
 8346.55  13.6868  1.0  3.60335  2.67804  0.370275
 8346.8  13.6864  1  3.60326  2.678  0.36238
 8347.05  13.686  1.0  3.60293  2.67788  0.355899
 8347.3  13.6856  1  3.60263  2.67767  0.350831
 8347.55  13.6852  1.0  3.60223  2.67752  0.346926
 8347.8  13.6848  1  3.60214  2.67744  0.34412
 8348.05  13.6843  1.0  3.60188  2.67734  0.342165
 8348.3  13.6839  1  3.60146  2.67713  0.34104
 8348.55  13.6835  1.0  3.60109  2.67692  0.34056
 8348.8  13.6831  1  3.60078  2.67676  0.340776
 8349.05  13.6827  1.0  3.60063  2.67673  0.341406
 8349.3  13.6823  1  3.6004  2.6766  0.342603
 8349.55  13.6818  1.0  3.60013  2.67644  0.34408
 8349.8  13.6814  1  3.59985  2.67638  0.345947
 8350.05  13.681  1.0  3.59957  2.67618  0.34801
 8350.3  13.6806  1  3.59939  2.67611  0.350292
 8350.55  13.6802  1.0  3.59911  2.67598  0.352618
 8350.8  13.6797  1  3.59881  2.67585  0.354927
 8351.05  13.6793  1.0  3.59853  2.67569  0.357146
 8351.3  13.6789  1  3.59819  2.67551  0.3592
 8351.55  13.6785  1.0  3.59791  2.6754  0.360908
 8351.8  13.6781  1  3.59758  2.67523  0.362262
 8352.05  13.6777  1.0  3.5975  2.67524  0.36314
 8352.3  13.6772  1  3.59726  2.67508  0.36349
 8352.55  13.6768  1.0  3.59697  2.67498  0.363135
 8352.8  13.6764  1  3.59657  2.67477  0.362101
 8353.05  13.676  1.0  3.59639  2.67469  0.36036
 8353.3  13.6756  1  3.59614  2.67453  0.357891
 8353.55  13.6752  1.0  3.59594  2.67448  0.354793
 8353.8  13.6747  1  3.59569  2.67438  0.351138
 8354.05  13.6743  1.0  3.5955  2.67431  0.346955
 8354.3  13.6739  1  3.59524  2.67425  0.342408
 8354.55  13.6735  1.0  3.59499  2.67406  0.33771
 8354.8  13.6731  1  3.59475  2.67405  0.332996
 8355.05  13.6727  1.0  3.59457  2.67385  0.328428
 8355.3  13.6722  1  3.59422  2.67372  0.324163
 8355.55  13.6718  1.0  3.59397  2.6736  0.320365
 8355.8  13.6714  1  3.59372  2.67346  0.317116
 8356.05  13.671  1.0  3.59346  2.67331  0.314515
 8356.3  13.6706  1  3.5932  2.67315  0.312607
 8356.55  13.6702  1.0  3.59292  2.67314  0.311427
 8356.8  13.6697  1  3.59269  2.67297  0.310925
 8357.05  13.6693  1.0  3.59249  2.67296  0.311012
 8357.3  13.6689  1  3.59229  2.67292  0.311711
 8357.55  13.6685  1.0  3.59219  2.6728  0.312873
 8357.8  13.6681  1  3.59178  2.67253  0.314411
 8358.05  13.6677  1.0  3.59155  2.67244  0.316271
 8358.3  13.6672  1  3.59133  2.67246  0.318314
 8358.55  13.6668  1.0  3.591  2.67227  0.320464
 8358.8  13.6664  1  3.59081  2.67213  0.322702
 8359.05  13.666  1.0  3.59048  2.67198  0.324842
 8359.3  13.6656  1  3.59026  2.67192  0.326962
 8359.55  13.6652  1.0  3.58999  2.67185  0.328966
 8359.8  13.6647  1  3.58978  2.67175  0.330774
 8360.05  13.6643  1.0  3.58961  2.67156  0.332536
 8360.3  13.6639  1  3.58929  2.67152  0.334192
 8360.55  13.6635  1.0  3.58915  2.6714  0.335787
 8360.8  13.6631  1  3.58878  2.67123  0.337373
 8361.05  13.6627  1.0  3.58855  2.67118  0.338995
 8361.3  13.6622  1  3.58822  2.67097  0.340754
 8361.55  13.6618  1.0  3.58817  2.671  0.342597
 8361.8  13.6614  1  3.5879  2.67088  0.344646
 8362.05  13.661  1.0  3.58767  2.67077  0.346883
 8362.3  13.6606  1  3.5874  2.67065  0.34926
 8362.55  13.6602  1.0  3.58709  2.67049  0.351726
 8362.8  13.6597  1  3.58688  2.67043  0.354351
 8363.05  13.6593  1.0  3.58668  2.67034  0.357013
 8363.3  13.6589  1  3.58626  2.67  0.35964
 8363.55  13.6585  1.0  3.58604  2.67  0.362227
 8363.8  13.6581  1  3.58581  2.66991  0.364703
 8364.05  13.6577  1.0  3.58558  2.66984  0.366949
 8364.3  13.6572  1  3.58548  2.66966  0.369042
 8364.55  13.6568  1.0  3.5852  2.6696  0.370902
 8364.8  13.6564  1  3.58488  2.66946  0.372555
 8365.05  13.656  1.0  3.5846  2.66938  0.373942
 8365.3  13.6556  1  3.5844  2.66922  0.375201
 8365.55  13.6552  1.0  3.58415  2.6691  0.376263
 8365.8  13.6547  1  3.58385  2.66896  0.377139
 8366.05  13.6543  1.0  3.58354  2.66881  0.377941
 8366.3  13.6539  1  3.5834  2.66873  0.378694
 8366.55  13.6535  1.0  3.58309  2.66868  0.379327
 8366.8  13.6531  1  3.58286  2.66858  0.37991
 8367.05  13.6527  1.0  3.58262  2.66843  0.380427
 8367.3  13.6523  1  3.58235  2.66826  0.380922
 8367.55  13.6518  1.0  3.58213  2.66823  0.381406
 8367.8  13.6514  1  3.58187  2.66804  0.381772
 8368.05  13.651  1.0  3.5817  2.66796  0.382034
 8368.3  13.6506  1  3.58148  2.66789  0.382192
 8368.55  13.6502  1.0  3.5811  2.66772  0.382255
 8368.8  13.6498  1  3.58072  2.66755  0.382145
 8369.05  13.6493  1.0  3.5805  2.66742  0.381904
 8369.3  13.6489  1  3.58025  2.6673  0.381501
 8369.55  13.6485  1.0  3.58  2.66716  0.380905
 8369.8  13.6481  1  3.57967  2.66703  0.380165
 8370.05  13.6477  1.0  3.57959  2.66696  0.379227
 8370.3  13.6473  1  3.57931  2.66686  0.378098
 8370.55  13.6468  1.0  3.57896  2.6667  0.376808
 8370.8  13.6464  1  3.57875  2.66662  0.37535
 8371.05  13.646  1.0  3.57853  2.66652  0.37372
 8371.3  13.6456  1  3.57833  2.66642  0.371896
 8371.55  13.6452  1.0  3.57803  2.66631  0.36995
 8371.8  13.6448  1  3.57777  2.6662  0.367847
 8372.05  13.6444  1.0  3.57753  2.66606  0.365654
 8372.3  13.6439  1  3.57722  2.66588  0.363335
 8372.55  13.6435  1.0  3.57694  2.66577  0.360934
 8372.8  13.6431  1  3.57683  2.66566  0.358422
 8373.05  13.6427  1.0  3.57637  2.66553  0.355886
 8373.3  13.6423  1  3.57626  2.66546  0.353232
 8373.55  13.6419  1.0  3.57607  2.66536  0.350562
 8373.8  13.6415  1  3.57576  2.66514  0.347843
 8374.05  13.641  1.0  3.57547  2.66504  0.345052
 8374.3  13.6406  1  3.57515  2.66493  0.342279
 8374.55  13.6402  1.0  3.5748  2.66474  0.33944
 8374.8  13.6398  1  3.57465  2.66462  0.336544
 8375.05  13.6394  1.0  3.57458  2.6647  0.333727
 8375.3  13.639  1  3.57427  2.66454  0.330812
 8375.55  13.6385  1.0  3.57406  2.66445  0.327878
 8375.8  13.6381  1  3.57394  2.66436  0.324959
 8376.05  13.6377  1.0  3.57362  2.6643  0.322043
 8376.3  13.6373  1  3.57333  2.66409  0.31913
 8376.55  13.6369  1.0  3.57304  2.66402  0.316243
 8376.8  13.6365  1  3.57285  2.66396  0.313353
 8377.05  13.6361  1.0  3.5726  2.66381  0.310568
 8377.3  13.6356  1  3.57232  2.66366  0.307817
 8377.55  13.6352  1.0  3.57748  2.66754  0.305535
 8377.8  13.6348  1  3.5803  2.66977  0.303202
 8378.05  13.6344  1.0  3.58031  2.66977  0.300708
 8378.3  13.634  1  3.57997  2.66961  0.298328
 8378.55  13.6336  1.0  3.57956  2.66945  0.296031
 8378.8  13.6332  1  3.57938  2.6693  0.293878
 8379.05  13.6327  1.0  3.57917  2.66924  0.291931
 8379.3  13.6323  1  3.57888  2.66905  0.290164
 8379.55  13.6319  1.0  3.57868  2.669  0.288579
 8379.8  13.6315  1  3.57849  2.66899  0.287219
 8380.05  13.6311  1.0  3.57801  2.66871  0.286022
 8380.3  13.6307  1  3.57775  2.66857  0.285062
 8380.55  13.6303  1.0  3.57763  2.66842  0.284346
 8380.8  13.6298  1  3.5773  2.66834  0.283852
 8381.05  13.6294  1.0  3.57713  2.66829  0.283581
 8381.3  13.629  1  3.57683  2.66818  0.283555
 8381.55  13.6286  1.0  3.57663  2.66805  0.283659
 8381.8  13.6282  1  3.5763  2.66791  0.283994
 8382.05  13.6278  1.0  3.57598  2.66767  0.284542
 8382.3  13.6274  1  3.57574  2.66754  0.285252
 8382.55  13.6269  1.0  3.57553  2.66748  0.286179
 8392.56  13.6104  1  3.5677  2.66444  0.376262
 8402.55  13.5939  1.0  3.55993  2.66155  0.388031
 8412.55  13.5774  1  3.55233  2.65854  0.362523
 8422.55  13.561  1.0  3.54472  2.65559  0.317304
 8432.55  13.5446  1  3.53722  2.65264  0.286772
 8442.55  13.5282  1.0  3.52936  2.64954  0.343482
 8452.55  13.5119  1  3.5218  2.64655  0.399204
 8462.55  13.4957  1.0  3.51414  2.64345  0.416992
 8472.55  13.4794  1  3.50656  2.64041  0.36932
 8482.54  13.4633  1.0  3.49891  2.63732  0.370978
 8492.54  13.4471  1  3.49125  2.63413  0.303411
 8502.54  13.431  1.0  3.48353  2.63096  0.299054
 8512.54  13.4149  1  3.47591  2.62773  0.367136
 8522.54  13.3989  1.0  3.46824  2.62444  0.458793
 8532.54  13.3829  1  3.46036  2.62115  0.413827
 8542.54  13.3669  1.0  3.45258  2.61776  0.375239
 8552.54  13.351  1  3.44467  2.61433  0.383743
 8562.54  13.3352  1.0  3.43648  2.61074  0.400343
 8572.54  13.3193  1  3.42741  2.60625  0.363961
 8582.53  13.3035  1.0  3.40253  2.58985  0.345609
 8592.53  13.2877  1  3.40712  2.59584  0.376542
 8602.53  13.272  1.0  3.3947  2.58883  0.424531
 8612.53  13.2563  1  3.04555  2.32464  0.390894
 8622.53  13.2407  1.0  3.06375  2.34089  0.393846
 8632.53  13.2251  1  3.39947  2.59978  0.43491
 8642.53  13.2095  1.0  3.38519  2.59123  0.422058
 8652.53  13.1939  1  3.36151  2.57552  0.414112
 8662.53  13.1784  1.0  3.37267  2.58646  0.408983
 8672.52  13.163  1  3.36502  2.58294  0.406158
 8682.52  13.1475  1.0  3.35739  2.5794  0.423946
 8692.52  13.1321  1  3.3499  2.57596  0.441803
 8702.52  13.1168  1.0  3.34254  2.57262  0.442866
 8712.52  13.1015  1  3.33518  2.5693  0.458221
 8722.52  13.0862  1.0  3.32771  2.56583  0.46646
 8732.52  13.0709  1  3.32041  2.56251  0.466816
 8742.52  13.0557  1.0  3.31316  2.55916  0.46406
 8752.51  13.0405  1  3.30592  2.55589  0.460132
 8762.51  13.0254  1.0  3.29887  2.55262  0.457089
 8772.51  13.0103  1  3.29174  2.54936  0.45536
 8782.51  12.9952  1.0  3.28459  2.54593  0.459538
 8792.51  12.9802  1  3.27737  2.54259  0.47212
 8802.51  12.9652  1.0  3.27019  2.53924  0.480671
 8812.51  12.9502  1  3.26309  2.53591  0.482333
 8822.51  12.9353  1.0  3.25613  2.53269  0.485749
 8832.5  12.9204  1  3.24915  2.52937  0.494339
 8842.5  12.9055  1.0  3.24202  2.52596  0.499859
 8852.5  12.8907  1  3.2351  2.52267  0.504889
 8862.5  12.8759  1.0  3.22802  2.51929  0.507144
 8872.5  12.8611  1  3.22104  2.5159  0.505852
 8882.5  12.8464  1.0  3.21394  2.51247  0.502787
 8892.5  12.8317  1  3.20677  2.50895  0.500151
 8902.5  12.8171  1.0  3.19947  2.50524  0.504048
 8912.5  12.8024  1  3.19048  2.5003  0.513198
 8922.5  12.7879  1.0  3.18156  2.49537  0.519599
 8932.5  12.7733  1  3.18113  2.49709  0.524918
 8942.49  12.7588  1.0  3.1738  2.49324  0.527955
 8952.49  12.7443  1  3.16629  2.48945  0.531549
 8962.49  12.7298  1.0  3.15911  2.48574  0.535456
 8972.49  12.7154  1  3.15213  2.48229  0.540226
 8982.49  12.701  1.0  3.1441  2.47793  0.543589
 8992.49  12.6867  1  3.13645  2.47388  0.54572
 9002.49  12.6723  1.0  3.08935  2.43866  0.540615
 9012.48  12.658  1  3.11309  2.45927  0.547121
 9022.48  12.6438  1.0  3.11868  2.46563  0.550571
 9032.48  12.6295  1  3.11157  2.46195  0.553229
 9042.48  12.6154  1.0  3.10473  2.45846  0.556584
 9052.48  12.6012  1  3.09812  2.45502  0.560628
 9062.48  12.5871  1.0  3.08814  2.44904  0.564309
 9072.48  12.573  1  3.07408  2.43971  0.566584
 9082.48  12.5589  1.0  3.05778  2.42866  0.568519
 9092.48  12.5449  1  3.07011  2.44027  0.575801
 9102.47  12.5309  1.0  3.06353  2.43694  0.579262
 9112.47  12.5169  1  3.05697  2.43343  0.582995
 9122.47  12.5029  1.0  3.05013  2.42983  0.586606
 9132.47  12.489  1  3.04311  2.42604  0.589559
 9142.47  12.4751  1.0  3.03568  2.42193  0.591552
 9152.47  12.4613  1  3.02434  2.41461  0.592458
 9162.47  12.4475  1.0  2.96707  2.37065  0.584728
 9172.47  12.4337  1  3.02226  2.41645  0.599745
 9182.46  12.4199  1.0  3.01312  2.41096  0.602554
 9192.46  12.4062  1  3.00579  2.40687  0.605157
 9202.46  12.3925  1.0  2.99875  2.40289  0.607676
 9212.46  12.3789  1  2.99208  2.3993  0.610759
 9222.46  12.3652  1.0  2.98529  2.39553  0.614223
 9232.45  12.3516  1  2.97858  2.39187  0.617689
 9242.46  12.338  1.0  2.97181  2.38811  0.62095
 9252.46  12.3245  1  2.96496  2.38434  0.624142
 9262.45  12.311  1.0  2.95826  2.38053  0.627288
 9272.45  12.2975  1  2.9515  2.3768  0.630305
 9282.45  12.2841  1.0  2.9445  2.37282  0.633029
 9292.45  12.2706  1  2.93775  2.36904  0.635609
 9302.45  12.2572  1.0  2.93395  2.3676  0.638545
 9312.45  12.2439  1  2.92696  2.36367  0.640888
 9322.45  12.2305  1.0  2.92001  2.35957  0.643302
 9332.45  12.2172  1  2.9134  2.35575  0.645864
 9342.45  12.204  1.0  2.90692  2.35212  0.648555
 9352.45  12.1907  1  2.90039  2.34847  0.651341
 9362.44  12.1775  1.0  2.89406  2.34486  0.654231
 9372.44  12.1643  1  2.88759  2.34117  0.656911
 9382.44  12.1511  1.0  2.88097  2.33741  0.659636
 9392.44  12.138  1  2.87458  2.33369  0.662471
 9402.44  12.1249  1.0  2.86805  2.32998  0.665288
 9412.43  12.1118  1  2.86763  2.33126  0.66956
 9422.43  12.0988  1.0  2.86108  2.32744  0.672451
 9432.43  12.0858  1  2.85464  2.32369  0.675329
 9442.43  12.0728  1.0  2.84797  2.31971  0.678076
 9452.43  12.0598  1  2.84159  2.31605  0.680931
 9462.43  12.0469  1.0  2.83511  2.31233  0.683633
 9472.43  12.034  1  2.82869  2.3084  0.686095
 9482.43  12.0211  1.0  2.82225  2.30474  0.68854
 9492.42  12.0082  1  2.81578  2.30088  0.69104
 9502.43  11.9954  1.0  2.80928  2.29696  0.693618
 9512.42  11.9826  1  2.80279  2.29317  0.696186
 9522.42  11.9698  1.0  2.7964  2.2894  0.698747
 9532.42  11.9571  1  2.79005  2.28555  0.7014
 9542.42  11.9444  1.0  2.78371  2.28177  0.704123
 9552.42  11.9317  1  2.77743  2.27804  0.706766
 9562.42  11.919  1.0  2.77093  2.27414  0.709409