File: MEX1_29707_processed.xdi
# XDI/1.0
# Mono.d_spacing: 3.13897
# Reference.Element: K
# ROI.start_bin: nan
# ROI.end_bin: nan
# Element.symbol: None
# Element.edge: None
# Processing.version: spec_processing_library v0.3.5
# Column.1: energy
# Column.2: bragg
# Column.3: count_time seconds
# Column.4: i0
# Column.5: i1
# Column.6: i2
# Describe.Column.1: energy - MEX1ES01ZEB01:CALC_ENERGY_EV
# Describe.Column.2: bragg - MEX1ES01ZEB01:BRAGG_WITH_OFFSET
# Describe.Column.3: count_time - MEX1ES01ZEB01:GATE_TIME_SET
# Describe.Column.4: i0 - MEX1ES01DAQ01:ch1:S:MeanValue_RBV
# Describe.Column.5: i1 - MEX1ES01DAQ01:ch2:S:MeanValue_RBV
# Describe.Column.6: i2 - MEX1ES01DAQ01:ch3:S:MeanValue_RBV
# Samples: [417, 417, 417, 417, 417, 417]
# ///
# KCl
#
# xdi from default mda2xdi preset for mex1.
#--------
#  energy   bragg   count_time   i0   i1   i2
 3407.94  35.4158  1.0  2.83886  0.57212  3.20132
 3417.94  35.2967  1  2.79098  0.565149  3.15453
 3427.94  35.1785  1.0  2.83918  0.570264  3.16743
 3437.94  35.0611  1  2.89131  0.56952  3.13954
 3447.94  34.9446  1.0  2.93361  0.571451  3.13129
 3457.94  34.8289  1  2.9865  0.572712  3.11367
 3467.94  34.714  1.0  3.03337  0.575245  3.10409
 3477.93  34.5999  1  3.08005  0.577772  3.0922
 3487.93  34.4867  1.0  3.13884  0.579474  3.07007
 3497.93  34.3743  1  3.16942  0.579505  3.04204
 3507.93  34.2626  1.0  3.20639  0.579336  3.00946
 3517.93  34.1518  1  3.24343  0.582313  2.99461
 3527.93  34.0417  1.0  3.28264  0.583376  2.96501
 3537.93  33.9323  1  3.3442  0.584788  2.92887
 3547.93  33.8238  1.0  3.40832  0.588696  2.90542
 3557.93  33.7159  1  3.45962  0.590565  2.87023
 3567.93  33.6088  1.0  3.50178  0.593245  2.8401
 3577.93  33.5025  1  3.53693  0.590839  2.77968
 3587.93  33.3968  1.0  3.57292  0.597286  2.77523
 3588.18  33.3942  1  3.57374  0.59732  2.77393
 3588.43  33.3916  1.0  3.5746  0.597423  2.7738
 3588.68  33.3889  1  3.57536  0.597411  2.77218
 3588.93  33.3863  1.0  3.57606  0.597516  2.77136
 3589.18  33.3837  1  3.57664  0.59716  2.76832
 3589.43  33.3811  1.0  3.57756  0.597678  2.77001
 3589.68  33.3784  1  3.57833  0.597656  2.76956
 3589.93  33.3758  1.0  3.5791  0.597739  2.76888
 3590.18  33.3732  1  3.57988  0.597797  2.76782
 3590.43  33.3705  1.0  3.58069  0.597781  2.76791
 3590.68  33.3679  1  3.58135  0.597798  2.76579
 3590.93  33.3653  1.0  3.58214  0.597958  2.76563
 3591.18  33.3627  1  3.58293  0.597995  2.76415
 3591.43  33.36  1.0  3.58374  0.598008  2.76341
 3591.68  33.3574  1  3.58451  0.598065  2.7624
 3591.93  33.3548  1.0  3.58531  0.598063  2.76227
 3592.18  33.3522  1  3.58609  0.598121  2.76082
 3592.43  33.3495  1.0  3.58682  0.598202  2.75988
 3592.68  33.3469  1  3.58751  0.598252  2.75912
 3592.93  33.3443  1.0  3.58822  0.598256  2.75859
 3593.18  33.3417  1  3.58908  0.598354  2.75716
 3593.43  33.339  1.0  3.58981  0.598379  2.75658
 3593.68  33.3364  1  3.5907  0.598368  2.75588
 3593.93  33.3338  1.0  3.5914  0.598448  2.75476
 3594.18  33.3312  1  3.59228  0.598526  2.7534
 3594.43  33.3286  1.0  3.59309  0.598562  2.75289
 3594.68  33.3259  1  3.59387  0.598633  2.75204
 3594.93  33.3233  1.0  3.5947  0.598667  2.75127
 3595.18  33.3207  1  3.59542  0.598733  2.75054
 3595.43  33.3181  1.0  3.59608  0.598714  2.74975
 3595.68  33.3155  1  3.59684  0.598732  2.74825
 3595.93  33.3128  1.0  3.59767  0.598846  2.74721
 3596.18  33.3102  1  3.59836  0.598925  2.7468
 3596.43  33.3076  1.0  3.59909  0.59894  2.74543
 3596.68  33.305  1  3.59971  0.599042  2.7449
 3596.93  33.3024  1.0  3.60042  0.599043  2.74407
 3597.18  33.2998  1  3.60111  0.599031  2.74323
 3597.43  33.2971  1.0  3.60192  0.59913  2.74243
 3597.68  33.2945  1  3.60263  0.599075  2.74186
 3597.93  33.2919  1.0  3.60333  0.599234  2.74074
 3598.18  33.2893  1  3.60395  0.599284  2.73938
 3598.43  33.2867  1.0  3.60465  0.599339  2.7387
 3598.68  33.2841  1  3.60525  0.59936  2.73773
 3598.93  33.2815  1.0  3.60592  0.599455  2.73673
 3599.18  33.2788  1  3.60649  0.599554  2.73604
 3599.43  33.2762  1.0  3.60716  0.59959  2.73518
 3599.68  33.2736  1  3.6077  0.599612  2.73415
 3599.93  33.271  1.0  3.60821  0.599567  2.73361
 3600.18  33.2684  1  3.60871  0.599617  2.73279
 3600.43  33.2658  1.0  3.60908  0.599656  2.73137
 3600.68  33.2632  1  3.60937  0.599747  2.73097
 3600.93  33.2606  1.0  3.60979  0.599768  2.7302
 3601.18  33.258  1  3.61017  0.599799  2.72925
 3601.43  33.2554  1.0  3.61037  0.599831  2.72822
 3601.68  33.2527  1  3.61056  0.599878  2.72751
 3601.93  33.2501  1.0  3.61055  0.599862  2.72737
 3602.18  33.2475  1  3.61043  0.599845  2.72598
 3602.43  33.2449  1.0  3.61027  0.599848  2.72518
 3602.68  33.2423  1  3.60986  0.599792  2.72441
 3602.93  33.2397  1.0  3.60943  0.599843  2.72342
 3603.18  33.2371  1  3.60878  0.599841  2.72283
 3603.43  33.2345  1.0  3.60779  0.599764  2.72172
 3603.68  33.2319  1  3.60696  0.599774  2.72099
 3603.93  33.2293  1.0  3.6058  0.599743  2.72063
 3604.18  33.2267  1  3.60444  0.599657  2.71933
 3604.43  33.2241  1.0  3.60301  0.599668  2.71953
 3604.68  33.2215  1  3.60142  0.599531  2.71812
 3604.93  33.2189  1.0  3.59976  0.599508  2.71761
 3605.18  33.2163  1  3.5981  0.599435  2.71626
 3605.43  33.2137  1.0  3.59641  0.599348  2.71606
 3605.68  33.2111  1  3.59476  0.599299  2.71561
 3605.93  33.2085  1.0  3.59323  0.599254  2.71409
 3606.18  33.2059  1  3.59175  0.599206  2.71341
 3606.43  33.2033  1.0  3.59036  0.599182  2.71276
 3606.68  33.2007  1  3.58901  0.599108  2.71262
 3606.93  33.1981  1.0  3.58775  0.59912  2.71141
 3607.18  33.1955  1  3.59455  0.600172  2.71585
 3607.43  33.1929  1.0  3.59356  0.600204  2.71488
 3607.68  33.1903  1  3.59262  0.600186  2.71421
 3607.93  33.1877  1.0  3.59169  0.600144  2.71309
 3608.18  33.1851  1  3.59097  0.600141  2.71263
 3608.43  33.1825  1.0  3.59047  0.600134  2.71167
 3608.68  33.1799  1  3.58998  0.60019  2.71122
 3608.93  33.1773  1.0  3.58967  0.60012  2.71093
 3609.18  33.1747  1  3.58938  0.60015  2.70992
 3609.43  33.1721  1.0  3.58906  0.600241  2.70937
 3609.68  33.1695  1  3.58873  0.600253  2.70889
 3609.93  33.1669  1.0  3.58848  0.600151  2.70808
 3610.18  33.1643  1  3.58819  0.600277  2.7072
 3610.43  33.1617  1.0  3.58798  0.600252  2.70684
 3610.68  33.1592  1  3.58791  0.600263  2.70547
 3610.93  33.1566  1.0  3.58762  0.600311  2.70513
 3611.18  33.154  1  3.58743  0.600362  2.70477
 3611.43  33.1514  1.0  3.5868  0.600316  2.70361
 3611.68  33.1488  1  3.58452  0.596564  2.67766
 3611.93  33.1462  1.0  3.58401  0.596984  2.68078
 3612.18  33.1436  1  3.58461  0.599977  2.69901
 3612.43  33.141  1.0  3.58369  0.600057  2.69885
 3612.68  33.1384  1  3.58275  0.60009  2.69889
 3612.93  33.1358  1.0  3.58182  0.60006  2.69812
 3613.18  33.1333  1  3.58074  0.600059  2.69735
 3613.43  33.1307  1.0  3.57954  0.599949  2.69621
 3613.68  33.1281  1  3.57829  0.599964  2.69628
 3613.93  33.1255  1.0  3.57691  0.599904  2.69506
 3614.18  33.1229  1  3.57557  0.599844  2.69413
 3614.43  33.1203  1.0  3.57401  0.599774  2.69314
 3614.68  33.1177  1  3.57249  0.599767  2.69215
 3614.93  33.1152  1.0  3.5709  0.599691  2.69124
 3615.18  33.1126  1  3.56902  0.599338  2.68988
 3615.43  33.11  1.0  3.56732  0.599525  2.69066
 3615.68  33.1074  1  3.56545  0.599428  2.69003
 3615.93  33.1048  1.0  3.56344  0.599338  2.68908
 3616.18  33.1022  1  3.56147  0.599242  2.68808
 3616.43  33.0997  1.0  3.55887  0.598108  2.67994
 3616.68  33.0971  1  3.55549  0.594901  2.65888
 3616.93  33.0945  1.0  3.55518  0.598332  2.68073
 3617.18  33.0919  1  3.55253  0.596724  2.66928
 3617.43  33.0893  1.0  3.54976  0.594516  2.65536
 3617.68  33.0868  1  3.54998  0.598433  2.68122
 3617.93  33.0842  1.0  3.54858  0.598547  2.68109
 3618.18  33.0816  1  3.54742  0.598532  2.68063
 3618.43  33.079  1.0  3.54649  0.598547  2.68054
 3618.68  33.0764  1  3.54573  0.598382  2.67849
 3618.93  33.0739  1.0  3.5452  0.598616  2.67894
 3619.18  33.0713  1  3.54496  0.598593  2.6784
 3619.43  33.0687  1.0  3.54493  0.598614  2.67702
 3619.68  33.0661  1  3.54506  0.598625  2.67617
 3619.93  33.0636  1.0  3.54554  0.598665  2.67552
 3620.18  33.061  1  3.54614  0.598691  2.67497
 3620.43  33.0584  1.0  3.54711  0.598796  2.67436
 3620.68  33.0558  1  3.54821  0.598945  2.67366
 3620.93  33.0533  1.0  3.54926  0.598992  2.67294
 3621.18  33.0507  1  3.55052  0.599118  2.67184
 3621.43  33.0481  1.0  3.55187  0.599299  2.67111
 3621.68  33.0455  1  3.55331  0.599313  2.67058
 3621.93  33.043  1.0  3.55477  0.599425  2.66923
 3622.18  33.0404  1  3.55469  0.596149  2.64629
 3622.43  33.0378  1.0  3.55625  0.596539  2.6471
 3622.68  33.0352  1  3.55894  0.599578  2.66478
 3622.93  33.0327  1.0  3.56024  0.599747  2.66546
 3623.18  33.0301  1  3.5616  0.599944  2.66497
 3623.43  33.0275  1.0  3.56288  0.599987  2.66402
 3623.68  33.025  1  3.56399  0.60014  2.66339
 3623.93  33.0224  1.0  3.56513  0.600215  2.66281
 3624.18  33.0198  1  3.56618  0.600346  2.66185
 3624.43  33.0173  1.0  3.56718  0.600417  2.66158
 3624.68  33.0147  1  3.5682  0.600456  2.66015
 3624.93  33.0121  1.0  3.56932  0.600585  2.65927
 3625.18  33.0096  1  3.57067  0.600688  2.65826
 3625.43  33.007  1.0  3.57205  0.600825  2.65797
 3625.68  33.0044  1  3.57357  0.600952  2.65715
 3625.93  33.0019  1.0  3.57526  0.601027  2.65588
 3626.18  32.9993  1  3.57727  0.60121  2.65582
 3626.43  32.9967  1.0  3.57953  0.601335  2.65467
 3626.68  32.9942  1  3.58168  0.601531  2.65392
 3626.93  32.9916  1.0  3.58423  0.601656  2.65276
 3627.18  32.989  1  3.58692  0.601851  2.65217
 3627.43  32.9865  1.0  3.58959  0.602133  2.65126
 3627.68  32.9839  1  3.59242  0.602367  2.65025
 3627.93  32.9813  1.0  3.59527  0.60254  2.64995
 3628.18  32.9788  1  3.59817  0.602738  2.64879
 3628.43  32.9762  1.0  3.60094  0.602978  2.64828
 3628.68  32.9737  1  3.6037  0.603112  2.64721
 3628.93  32.9711  1.0  3.60613  0.603345  2.64666
 3629.18  32.9685  1  3.6085  0.603499  2.64568
 3629.43  32.966  1.0  3.6108  0.603614  2.64475
 3629.68  32.9634  1  3.61308  0.603852  2.64385
 3629.93  32.9609  1.0  3.61532  0.604081  2.6435
 3630.18  32.9583  1  3.61737  0.604156  2.6422
 3630.43  32.9557  1.0  3.61929  0.604249  2.64153
 3630.68  32.9532  1  3.62118  0.604408  2.64101
 3630.93  32.9506  1.0  3.62293  0.604554  2.63965
 3631.18  32.9481  1  3.62478  0.604711  2.63912
 3631.43  32.9455  1.0  3.62655  0.604886  2.6392
 3631.68  32.943  1  3.62824  0.604984  2.63814
 3631.93  32.9404  1.0  3.62996  0.605188  2.63693
 3632.18  32.9379  1  3.63149  0.605355  2.63628
 3632.43  32.9353  1.0  3.63306  0.605424  2.63555
 3632.68  32.9327  1  3.63471  0.605576  2.63454
 3632.93  32.9302  1.0  3.63636  0.605728  2.63352
 3633.18  32.9276  1  3.63792  0.605878  2.63291
 3633.43  32.9251  1.0  3.63927  0.606014  2.63231
 3633.68  32.9225  1  3.64087  0.60609  2.63161
 3633.93  32.92  1.0  3.64231  0.606246  2.63052
 3634.18  32.9174  1  3.64364  0.606433  2.63019
 3634.43  32.9149  1.0  3.64521  0.606508  2.62907
 3634.68  32.9123  1  3.64626  0.606625  2.6279
 3634.93  32.9098  1.0  3.64758  0.606678  2.62759
 3635.18  32.9072  1  3.6488  0.606819  2.62711
 3635.43  32.9047  1.0  3.65006  0.606978  2.62609
 3635.68  32.9021  1  3.65104  0.606993  2.62507
 3635.93  32.8996  1.0  3.65196  0.607153  2.62455
 3636.18  32.897  1  3.65314  0.607271  2.62369
 3636.43  32.8945  1.0  3.65397  0.60729  2.62333
 3636.68  32.8919  1  3.655  0.607391  2.622
 3636.93  32.8894  1.0  3.65593  0.607555  2.62131
 3637.18  32.8868  1  3.65671  0.60757  2.62119
 3637.43  32.8843  1.0  3.65744  0.607751  2.61992
 3637.68  32.8818  1  3.65805  0.607729  2.6193
 3637.93  32.8792  1.0  3.65873  0.60785  2.61819
 3638.18  32.8767  1  3.65925  0.607926  2.61787
 3638.43  32.8741  1.0  3.65981  0.608019  2.61691
 3638.68  32.8716  1  3.66044  0.608126  2.61594
 3638.93  32.869  1.0  3.66095  0.60818  2.61592
 3639.18  32.8665  1  3.66348  0.608625  2.61582
 3639.43  32.8639  1.0  3.67015  0.609504  2.61817
 3639.68  32.8614  1  3.67049  0.60955  2.61777
 3639.93  32.8589  1.0  3.67074  0.609542  2.61654
 3640.18  32.8563  1  3.67088  0.609525  2.6153
 3640.43  32.8538  1.0  3.67076  0.608994  2.61034
 3640.68  32.8512  1  3.67114  0.609695  2.61363
 3640.93  32.8487  1.0  3.67109  0.609778  2.61334
 3641.18  32.8462  1  3.67109  0.60983  2.61242
 3641.43  32.8436  1.0  3.67132  0.609817  2.61184
 3641.68  32.8411  1  3.67108  0.609927  2.61107
 3641.93  32.8385  1.0  3.67106  0.609908  2.61037
 3642.18  32.836  1  3.67089  0.610029  2.6094
 3642.43  32.8335  1.0  3.67087  0.610011  2.60869
 3642.68  32.8309  1  3.67079  0.610045  2.60798
 3642.93  32.8284  1.0  3.67066  0.610129  2.60763
 3643.18  32.8259  1  3.67076  0.610116  2.60681
 3643.43  32.8233  1.0  3.67079  0.610221  2.60534
 3643.68  32.8208  1  3.67089  0.610265  2.60527
 3643.93  32.8183  1.0  3.67099  0.610297  2.60384
 3644.18  32.8157  1  3.67105  0.610356  2.60289
 3644.43  32.8132  1.0  3.67116  0.61012  2.60153
 3644.68  32.8106  1  3.67097  0.60955  2.59569
 3644.93  32.8081  1.0  3.67134  0.610459  2.6006
 3645.18  32.8056  1  3.67144  0.60971  2.59508
 3645.43  32.803  1.0  3.67178  0.610116  2.59673
 3645.68  32.8005  1  3.67213  0.610613  2.59843
 3645.93  32.798  1.0  3.67257  0.610615  2.5976
 3646.18  32.7954  1  3.67303  0.610686  2.59651
 3646.43  32.7929  1.0  3.67347  0.610849  2.5964
 3646.68  32.7904  1  3.6742  0.61093  2.59571
 3646.93  32.7879  1.0  3.67472  0.611018  2.59422
 3647.18  32.7853  1  3.67544  0.611146  2.59362
 3647.43  32.7828  1.0  3.6763  0.611169  2.59314
 3647.68  32.7803  1  3.6773  0.611283  2.59228
 3647.93  32.7777  1.0  3.67849  0.611424  2.59097
 3648.18  32.7752  1  3.67972  0.611482  2.59038
 3648.43  32.7727  1.0  3.68097  0.611689  2.58971
 3648.68  32.7702  1  3.68258  0.611822  2.58884
 3648.93  32.7676  1.0  3.68433  0.611994  2.58858
 3649.18  32.7651  1  3.68618  0.612076  2.58795
 3649.43  32.7626  1.0  3.6879  0.611704  2.58232
 3649.68  32.7601  1  3.69018  0.612059  2.58348
 3649.93  32.7575  1.0  3.6926  0.612698  2.58477
 3650.18  32.755  1  3.69506  0.612892  2.58448
 3650.43  32.7525  1.0  3.69753  0.613103  2.58362
 3650.68  32.75  1  3.70018  0.613408  2.5829
 3650.93  32.7474  1.0  3.70298  0.61356  2.58227
 3651.18  32.7449  1  3.70584  0.613801  2.58145
 3651.43  32.7424  1.0  3.70869  0.614075  2.58078
 3651.68  32.7399  1  3.71136  0.614293  2.58007
 3651.93  32.7373  1.0  3.71422  0.614444  2.57908
 3652.18  32.7348  1  3.717  0.61479  2.57793
 3652.43  32.7323  1.0  3.71987  0.614953  2.5777
 3652.68  32.7298  1  3.72266  0.615255  2.5768
 3652.93  32.7273  1.0  3.72548  0.615487  2.57608
 3653.18  32.7247  1  3.72816  0.615596  2.57575
 3653.43  32.7222  1.0  3.73091  0.615869  2.57452
 3653.68  32.7197  1  3.73348  0.616125  2.57413
 3653.93  32.7172  1.0  3.73623  0.616362  2.57295
 3654.18  32.7147  1  3.73879  0.616583  2.57223
 3654.43  32.7122  1.0  3.74105  0.616753  2.57146
 3654.68  32.7096  1  3.74336  0.617012  2.5708
 3654.93  32.7071  1.0  3.74568  0.617121  2.56952
 3655.18  32.7046  1  3.7477  0.617353  2.56904
 3655.43  32.7021  1.0  3.74985  0.617578  2.56848
 3655.68  32.6996  1  3.75176  0.617738  2.56765
 3655.93  32.6971  1.0  3.75374  0.617906  2.56693
 3656.18  32.6945  1  3.75536  0.617536  2.5614
 3656.43  32.692  1.0  3.75717  0.618287  2.56609
 3656.68  32.6895  1  3.75874  0.618472  2.56519
 3656.93  32.687  1.0  3.76024  0.618617  2.56465
 3657.18  32.6845  1  3.76179  0.618778  2.56343
 3657.43  32.682  1.0  3.76304  0.61894  2.56269
 3657.68  32.6795  1  3.76422  0.619021  2.56172
 3657.93  32.6769  1.0  3.76532  0.619233  2.56141
 3667.93  32.5768  1  3.78916  0.623341  2.53356
 3677.93  32.4773  1.0  3.82126  0.622943  2.46838
 3687.92  32.3785  1  3.86103  0.64042  2.52257
 3697.92  32.2803  1.0  3.93879  0.648387  2.48842
 3707.92  32.1828  1  3.98497  0.65671  2.47085
 3717.92  32.0858  1.0  4.01946  0.661422  2.43026
 3727.92  31.9895  1  4.06301  0.673793  2.43821
 3737.92  31.8938  1.0  4.11636  0.684084  2.42291
 3747.92  31.7988  1  4.17288  0.694513  2.40261
 3757.92  31.7043  1.0  4.21816  0.703368  2.37592
 3767.92  31.6104  1  4.25825  0.714683  2.36575
 3777.92  31.5171  1.0  4.30573  0.724829  2.34155
 3787.92  31.4244  1  4.36157  0.737709  2.3259
 3797.92  31.3323  1.0  4.41722  0.750123  2.30499
 3807.92  31.2407  1  4.46991  0.762813  2.28403
 3817.92  31.1498  1.0  4.51784  0.776679  2.2728
 3827.92  31.0593  1  4.56045  0.789258  2.25217
 3837.92  30.9695  1.0  4.59938  0.801321  2.22809
 3847.92  30.8802  1  4.64392  0.81484  2.20792
 3857.92  30.7914  1.0  4.68927  0.828292  2.18294
 3867.92  30.7032  1  4.73721  0.842333  2.15626
 3877.92  30.6155  1.0  4.78974  0.858416  2.1379
 3887.91  30.5283  1  4.84232  0.873723  2.10859
 3897.91  30.4417  1.0  4.89677  0.892411  2.10105
 3907.91  30.3556  1  4.94555  0.907504  2.06667
 3917.91  30.2699  1.0  4.98919  0.921897  2.02833
 3927.91  30.1849  1  5.03353  0.939148  2.00654
 3937.91  30.1003  1.0  5.07635  0.955251  1.97455
 3947.91  30.0162  1  5.12129  0.972142  1.94365
 3957.91  29.9326  1.0  5.16846  0.990306  1.91463
 3967.91  29.8495  1  5.21482  1.00794  1.87892
 3977.91  29.7669  1.0  5.26019  1.0269  1.85093
 3987.91  29.6847  1  5.30242  1.04346  1.80328
 3997.91  29.6031  1.0  5.35133  1.06528  1.78577
 4007.91  29.5219  1  5.4019  1.086  1.75187
 4017.91  29.4412  1.0  5.41328  1.10163  1.72268
 4027.91  29.3609  1  5.47773  1.12843  1.69683
 4037.91  29.2811  1.0  5.52012  1.13932  1.59812
 4047.91  29.2018  1  5.55808  1.16551  1.61213
 4057.91  29.1229  1.0  5.60562  1.18762  1.57202
 4067.91  29.0445  1  5.6533  1.21005  1.53004
 4077.9  28.9665  1.0  5.69661  1.23281  1.49337
 4087.9  28.8889  1  5.73643  1.25585  1.46021
 4097.9  28.8118  1.0  5.77691  1.27978  1.42888
 4107.9  28.7351  1  5.81674  1.30306  1.38866
 4117.9  28.6589  1.0  5.85651  1.32764  1.35594
 4127.9  28.5831  1  5.89534  1.35195  1.31678
 4137.9  28.5076  1.0  5.93636  1.37742  1.28067
 4147.9  28.4327  1  5.97845  1.40518  1.25676
 4157.9  28.3581  1.0  6.02003  1.43239  1.22471
 4167.9  28.2839  1  6.06204  1.46073  1.19593
 4177.9  28.2101  1.0  6.10502  1.48957  1.16678
 4187.9  28.1368  1  6.15831  1.52125  1.13766
 4197.9  28.0638  1.0  6.19757  1.55105  1.11319
 4207.9  27.9913  1  6.22579  1.57875  1.08763
 4217.9  27.9191  1.0  6.1859  1.58807  1.04203
 4227.9  27.8473  1  6.34936  1.64808  1.00913
 4237.9  27.7759  1.0  6.37061  1.67518  0.980083
 4247.89  27.7049  1  6.40336  1.70539  0.951049
 4257.89  27.6343  1.0  6.43684  1.73603  0.919642
 4267.89  27.564  1  6.47125  1.76736  0.887242
 4277.89  27.4941  1.0  6.51015  1.80146  0.865297
 4287.89  27.4246  1  6.54899  1.83595  0.842868
 4297.89  27.3554  1.0  6.58505  1.86934  0.811325
 4307.89  27.2867  1  6.62406  1.90519  0.790868
 4317.89  27.2182  1.0  6.66375  1.94225  0.775423
 4327.89  27.1502  1  6.70096  1.97835  0.75243
 4337.89  27.0825  1.0  6.73961  2.01573  0.732699
 4347.89  27.0151  1  6.77367  2.05221  0.712927
 4357.89  26.9481  1.0  6.80547  2.08763  0.684165
 4367.89  26.8814  1  6.84161  2.12584  0.666565
 4377.89  26.8151  1.0  6.87702  2.16467  0.649298
 4387.89  26.7491  1  6.91047  2.20233  0.625643
 4397.89  26.6835  1.0  6.94455  2.24198  0.611524
 4407.89  26.6182  1  6.97813  2.28131  0.59524
 4417.89  26.5532  1.0  7.00854  2.31976  0.571863
 4427.88  26.4886  1  7.03914  2.35896  0.552132
 4437.88  26.4242  1.0  7.07369  2.40082  0.542057
 4447.88  26.3602  1  7.1102  2.44428  0.535384
 4457.88  26.2966  1.0  7.1369  2.48721  0.525852
 4467.88  26.2332  1  7.12624  2.53079  0.515863
 4477.88  26.1702  1.0  7.18621  2.57457  0.505489
 4487.88  26.1075  1  7.18902  2.61813  0.49506
 4497.88  26.0451  1.0  7.18815  2.6623  0.487374
 4507.88  25.983  1  7.18824  2.70554  0.476985
 4517.88  25.9212  1.0  7.18793  2.74969  0.466987
 4527.88  25.8597  1  7.18758  2.79469  0.461674
 4537.88  25.7985  1.0  7.18735  2.83955  0.454427
 4547.88  25.7376  1  7.18718  2.88465  0.446341
 4557.88  25.6771  1.0  7.18704  2.92993  0.438699
 4567.88  25.6168  1  7.18683  2.97549  0.431533
 4577.88  25.5568  1.0  7.18667  3.02121  0.424684
 4587.875  25.4971  1  7.18661  3.067  0.420313
 4597.88  25.4377  1.0  7.18654  3.11297  0.415331
 4607.87  25.3786  1  7.18645  3.15955  0.412705
 4617.87  25.3197  1.0  7.18641  3.20675  0.410526
 4627.87  25.2612  1  7.18637  3.25354  0.408329
 4637.87  25.2029  1.0  7.18664  3.25566  0.404677
 4647.87  25.1449  1  7.18629  3.34739  0.409552
 4657.87  25.0872  1.0  7.18627  3.39716  0.412123
 4667.87  25.0297  1  7.18625  3.44694  0.415043
 4677.87  24.9725  1.0  7.18626  3.49818  0.419815
 4687.87  24.9156  1  7.1862  3.54858  0.42424
 4697.87  24.859  1.0  7.18626  3.599  0.428539
 4707.87  24.8026  1  7.18624  3.64779  0.43292
 4717.87  24.7465  1.0  7.1862  3.69795  0.437941
 4727.87  24.6907  1  7.18618  3.75002  0.444869
 4737.87  24.6351  1.0  7.18619  3.80133  0.452453
 4747.87  24.5798  1  7.18619  3.85166  0.459412
 4757.87  24.5247  1.0  7.1862  3.90368  0.467916
 4767.86  24.4699  1  7.18618  3.95478  0.476781
 4777.86  24.4153  1.0  7.18621  4.00543  0.485322
 4787.86  24.361  1  7.18622  4.05629  0.495199
 4797.86  24.307  1.0  7.1862  4.10779  0.507059
 4807.86  24.2532  1  7.1862  4.15796  0.519449
 4817.86  24.1996  1.0  7.18622  4.20854  0.533293
 4827.86  24.1463  1  7.18623  4.26278  0.549443
 4837.86  24.0932  1.0  7.1862  4.31708  0.566132