File: MEX1_29698_processed.xdi
# XDI/1.0
# Mono.d_spacing: 3.13897
# Reference.Element: Fe
# ROI.start_bin: nan
# ROI.end_bin: nan
# Element.symbol: None
# Element.edge: None
# Processing.version: spec_processing_library v0.3.5
# Column.1: energy
# Column.2: bragg
# Column.3: count_time seconds
# Column.4: i0
# Column.5: i1
# Column.6: i2
# Describe.Column.1: energy - MEX1ES01ZEB01:CALC_ENERGY_EV
# Describe.Column.2: bragg - MEX1ES01ZEB01:BRAGG_WITH_OFFSET
# Describe.Column.3: count_time - MEX1ES01ZEB01:GATE_TIME_SET
# Describe.Column.4: i0 - MEX1ES01DAQ01:ch1:S:MeanValue_RBV
# Describe.Column.5: i1 - MEX1ES01DAQ01:ch2:S:MeanValue_RBV
# Describe.Column.6: i2 - MEX1ES01DAQ01:ch3:S:MeanValue_RBV
# Samples: [417, 417, 417, 417, 417, 417]
# ///
# Fe foil
#
# xdi from default mda2xdi preset for mex1.
#--------
#  energy   bragg   count_time   i0   i1   i2
 6911.69  16.6029  1.0  4.78682  2.83134  1.94071
 6921.7  16.5782  1  4.77965  2.83354  1.95111
 6931.7  16.5536  1.0  4.77256  2.83578  1.96163
 6941.7  16.529  1  4.7653  2.83792  1.97212
 6951.7  16.5046  1.0  4.7581  2.84006  1.98248
 6961.7  16.4802  1  4.75094  2.84211  1.99285
 6971.7  16.4559  1.0  4.7438  2.84417  2.00308
 6981.7  16.4316  1  4.73648  2.84617  2.01339
 6991.7  16.4075  1.0  4.72925  2.84807  2.02367
 7001.69  16.3834  1  4.72202  2.84994  2.03377
 7011.69  16.3594  1.0  4.7147  2.85173  2.04374
 7021.69  16.3354  1  4.70721  2.85339  2.05367
 7031.69  16.3115  1.0  4.6998  2.85509  2.06341
 7041.69  16.2877  1  4.69241  2.85676  2.07298
 7051.69  16.264  1.0  4.68499  2.85833  2.08224
 7061.69  16.2403  1  4.678  2.86007  2.09109
 7071.69  16.2167  1.0  4.62429  2.83319  2.07824
 7081.69  16.1932  1  4.65981  2.86091  2.10372
 7091.69  16.1697  1.0  4.6528  2.86257  2.106
 7091.93  16.1692  1  4.65259  2.86261  2.106
 7092.18  16.1686  1.0  4.65229  2.86253  2.10589
 7092.43  16.168  1  4.65195  2.86248  2.10572
 7092.68  16.1674  1.0  4.6517  2.86251  2.10571
 7092.93  16.1668  1  4.65145  2.86254  2.10553
 7093.18  16.1662  1.0  4.65119  2.86248  2.10544
 7093.43  16.1657  1  4.65116  2.86264  2.10541
 7093.68  16.1651  1.0  4.6507  2.86247  2.10519
 7093.93  16.1645  1  4.65042  2.86243  2.10501
 7094.18  16.1639  1.0  4.6502  2.86243  2.10486
 7094.43  16.1633  1  4.64999  2.86252  2.10476
 7094.68  16.1627  1.0  4.64978  2.86248  2.10457
 7094.93  16.1621  1  4.6495  2.86246  2.10436
 7095.18  16.1616  1.0  4.64909  2.86239  2.10414
 7095.43  16.161  1  4.6488  2.86228  2.10384
 7095.68  16.1604  1.0  4.64859  2.86237  2.10366
 7095.93  16.1598  1  4.6484  2.8624  2.10346
 7096.18  16.1592  1.0  4.64815  2.86237  2.10327
 7096.43  16.1586  1  4.64778  2.86231  2.10285
 7096.68  16.1581  1.0  4.64745  2.86224  2.10259
 7096.93  16.1575  1  4.64726  2.8623  2.1023
 7097.18  16.1569  1.0  4.64705  2.8623  2.10208
 7097.43  16.1563  1  4.64674  2.86225  2.10163
 7097.68  16.1557  1.0  4.64648  2.86224  2.10131
 7097.93  16.1551  1  4.6461  2.86222  2.10088
 7098.18  16.1545  1.0  4.64577  2.86208  2.10047
 7098.43  16.154  1  4.64569  2.8622  2.10011
 7098.68  16.1534  1.0  4.64539  2.86221  2.09966
 7098.93  16.1528  1  4.64515  2.86214  2.09913
 7099.18  16.1522  1.0  4.64477  2.86208  2.09872
 7099.43  16.1516  1  4.64462  2.8621  2.09815
 7099.68  16.151  1.0  4.64421  2.86205  2.09762
 7099.93  16.1505  1  4.6438  2.86197  2.09705
 7100.18  16.1499  1.0  4.64362  2.86192  2.09648
 7100.43  16.1493  1  4.64333  2.86189  2.09576
 7100.68  16.1487  1.0  4.6431  2.86199  2.09517
 7100.93  16.1481  1  4.64273  2.86181  2.09435
 7101.18  16.1475  1.0  4.64251  2.86185  2.09365
 7101.43  16.1469  1  4.64238  2.86191  2.09286
 7101.68  16.1464  1.0  4.64221  2.86192  2.09204
 7101.93  16.1458  1  4.64186  2.86181  2.09111
 7102.18  16.1452  1.0  4.6416  2.86188  2.09018
 7102.43  16.1446  1  4.64131  2.86189  2.08918
 7102.68  16.144  1.0  4.64115  2.86188  2.08816
 7102.93  16.1434  1  4.64092  2.86191  2.08712
 7103.18  16.1429  1.0  4.64063  2.86192  2.08585
 7103.43  16.1423  1  4.64041  2.86185  2.0845
 7103.68  16.1417  1.0  4.63991  2.86178  2.08315
 7103.93  16.1411  1  4.63965  2.86179  2.08168
 7104.18  16.1405  1.0  4.63943  2.86177  2.08005
 7104.43  16.1399  1  4.63915  2.86174  2.0784
 7104.68  16.1394  1.0  4.63887  2.86167  2.07653
 7104.93  16.1388  1  4.63843  2.86154  2.07447
 7105.18  16.1382  1.0  4.63825  2.86158  2.07243
 7105.43  16.1376  1  4.63809  2.86156  2.07003
 7105.68  16.137  1.0  4.63786  2.86162  2.06756
 7105.93  16.1364  1  4.6374  2.86154  2.06484
 7106.18  16.1359  1.0  4.63715  2.86151  2.06172
 7106.43  16.1353  1  4.63678  2.86145  2.0584
 7106.68  16.1347  1.0  4.63669  2.86151  2.05466
 7106.93  16.1341  1  4.63647  2.86151  2.05052
 7107.18  16.1335  1.0  4.63601  2.86147  2.04586
 7107.43  16.1329  1  4.63569  2.8613  2.04046
 7107.68  16.1324  1.0  4.63538  2.86129  2.03442
 7107.93  16.1318  1  4.63512  2.86132  2.02744
 7108.18  16.1312  1.0  4.63487  2.86128  2.01918
 7108.43  16.1306  1  4.63445  2.86117  2.00948
 7108.68  16.13  1.0  4.63421  2.86115  1.99785
 7108.93  16.1294  1  4.634  2.8611  1.98333
 7109.18  16.1289  1.0  4.63365  2.86112  1.96516
 7109.43  16.1283  1  4.63334  2.86105  1.94143
 7109.68  16.1277  1.0  4.63288  2.86092  1.90947
 7109.93  16.1271  1  4.63238  2.86081  1.86627
 7110.18  16.1265  1.0  4.632  2.86067  1.80838
 7110.43  16.126  1  4.63163  2.86059  1.73463
 7110.68  16.1254  1.0  4.63104  2.86036  1.64888
 7110.93  16.1248  1  4.63037  2.86017  1.55763
 7111.18  16.1242  1.0  4.62997  2.85999  1.4709
 7111.43  16.1236  1  4.62946  2.85988  1.39607
 7111.68  16.123  1.0  4.62905  2.85976  1.33454
 7111.93  16.1225  1  4.6285  2.85955  1.28451
 7112.18  16.1219  1.0  4.62796  2.85941  1.24324
 7112.43  16.1213  1  4.62749  2.85919  1.20754
 7112.68  16.1207  1.0  4.62704  2.85916  1.17541
 7112.93  16.1201  1  4.62666  2.85892  1.14591
 7113.18  16.1196  1.0  4.62632  2.85895  1.11822
 7113.43  16.119  1  4.62592  2.85883  1.09275
 7113.68  16.1184  1.0  4.62547  2.8587  1.06962
 7113.93  16.1178  1  4.62517  2.85866  1.04953
 7114.18  16.1172  1.0  4.62475  2.85856  1.03261
 7114.43  16.1166  1  4.62445  2.85852  1.01897
 7114.68  16.1161  1.0  4.62415  2.85844  1.00839
 7114.93  16.1155  1  4.62358  2.85825  1.00035
 7115.18  16.1149  1.0  4.62332  2.85824  0.994267
 7115.43  16.1143  1  4.62308  2.8582  0.989204
 7115.68  16.1137  1.0  4.62278  2.85812  0.984259
 7115.93  16.1132  1  4.62222  2.85802  0.978335
 7116.18  16.1126  1.0  4.62203  2.85801  0.970305
 7116.43  16.112  1  4.62162  2.85791  0.958945
 7116.68  16.1114  1.0  4.62127  2.85785  0.943378
 7116.93  16.1108  1  4.62073  2.85763  0.923205
 7117.18  16.1102  1.0  4.62032  2.85758  0.89865
 7117.43  16.1097  1  4.61989  2.85755  0.870551
 7117.68  16.1091  1.0  4.6194  2.8573  0.840386
 7117.93  16.1085  1  4.61894  2.85714  0.809563
 7118.18  16.1079  1.0  4.61835  2.85691  0.778898
 7118.43  16.1073  1  4.62573  2.86156  0.750066
 7118.68  16.1068  1.0  4.62799  2.86323  0.720888
 7118.93  16.1062  1  4.62764  2.86312  0.691915
 7119.18  16.1056  1.0  4.62707  2.86289  0.663384
 7119.43  16.105  1  4.6264  2.86266  0.635408
 7119.68  16.1044  1.0  4.62584  2.86246  0.60818
 7119.93  16.1039  1  4.62534  2.86229  0.581832
 7120.18  16.1033  1.0  4.62496  2.86211  0.556934
 7120.43  16.1027  1  4.62442  2.86196  0.53372
 7120.68  16.1021  1.0  4.62384  2.86181  0.512514
 7120.93  16.1015  1  4.62325  2.86158  0.493468
 7121.18  16.101  1.0  4.62278  2.86141  0.476386
 7121.43  16.1004  1  4.62229  2.86127  0.461208
 7121.68  16.0998  1.0  4.62182  2.86109  0.447601
 7121.93  16.0992  1  4.62122  2.86092  0.435253
 7122.18  16.0986  1.0  4.6206  2.86067  0.424145
 7122.43  16.098  1  4.62015  2.86049  0.413951
 7122.68  16.0975  1.0  4.61974  2.8604  0.404618
 7122.93  16.0969  1  4.61932  2.86025  0.396065
 7123.18  16.0963  1.0  4.61882  2.8601  0.388061
 7123.43  16.0957  1  4.61826  2.85993  0.380618
 7123.68  16.0951  1.0  4.61776  2.85972  0.373707
 7123.93  16.0946  1  4.61726  2.85954  0.367162
 7124.18  16.094  1.0  4.61675  2.85946  0.361008
 7124.43  16.0934  1  4.61637  2.85926  0.35511
 7124.68  16.0928  1.0  4.61593  2.85918  0.349548
 7124.93  16.0922  1  4.61533  2.85896  0.344084
 7125.18  16.0917  1.0  4.61482  2.85873  0.338736
 7125.43  16.0911  1  4.61443  2.85864  0.333363
 7125.68  16.0905  1.0  4.61394  2.85854  0.328022
 7125.93  16.0899  1  4.61332  2.85826  0.322623
 7126.18  16.0893  1.0  4.61286  2.85816  0.317058
 7126.43  16.0888  1  4.61256  2.85805  0.311334
 7126.68  16.0882  1.0  4.61206  2.85795  0.305321
 7126.93  16.0876  1  4.61163  2.85786  0.299093
 7127.18  16.087  1.0  4.61116  2.8577  0.292553
 7127.43  16.0865  1  4.61055  2.85744  0.285752
 7127.68  16.0859  1.0  4.61011  2.85726  0.278818
 7127.93  16.0853  1  4.60965  2.85719  0.271866
 7128.18  16.0847  1.0  4.6093  2.85705  0.2649
 7128.43  16.0841  1  4.60888  2.85692  0.258069
 7128.68  16.0836  1.0  4.6082  2.85675  0.251571
 7128.93  16.083  1  4.60787  2.85661  0.245462
 7129.18  16.0824  1.0  4.60741  2.85649  0.239903
 7129.43  16.0818  1  4.60699  2.85646  0.235017
 7129.68  16.0812  1.0  4.60673  2.85637  0.230823
 7129.93  16.0807  1  4.60632  2.85621  0.227554
 7130.18  16.0801  1.0  4.60584  2.85611  0.225346
 7130.43  16.0795  1  4.60564  2.85606  0.224291
 7130.68  16.0789  1.0  4.60545  2.85613  0.224464
 7130.93  16.0783  1  4.60514  2.8561  0.22574
 7131.18  16.0778  1.0  4.60479  2.85601  0.228047
 7131.43  16.0772  1  4.60449  2.85602  0.231334
 7131.68  16.0766  1.0  4.60431  2.85603  0.235461
 7131.93  16.076  1  4.60418  2.85603  0.240247
 7132.18  16.0754  1.0  4.60392  2.85601  0.245444
 7132.43  16.0749  1  4.60358  2.85601  0.250896
 7132.68  16.0743  1.0  4.60338  2.85606  0.256519
 7132.93  16.0737  1  4.60325  2.85606  0.262138
 7133.18  16.0731  1.0  4.60308  2.85611  0.267683
 7133.43  16.0726  1  4.60287  2.85613  0.272933
 7133.68  16.072  1.0  4.60269  2.8562  0.277966
 7133.93  16.0714  1  4.6025  2.8562  0.282661
 7134.18  16.0708  1.0  4.6022  2.85619  0.286968
 7134.43  16.0702  1  4.6021  2.8562  0.290749
 7134.68  16.0697  1.0  4.6019  2.85625  0.294086
 7134.93  16.0691  1  4.60179  2.85627  0.296932
 7135.18  16.0685  1.0  4.60152  2.85628  0.299321
 7135.43  16.0679  1  4.60114  2.85628  0.30122
 7135.68  16.0674  1.0  4.60105  2.85628  0.302542
 7135.93  16.0668  1  4.60086  2.85629  0.303513
 7136.18  16.0662  1.0  4.60067  2.85631  0.304028
 7136.43  16.0656  1  4.60027  2.85626  0.304094
 7136.68  16.065  1.0  4.59993  2.85616  0.303779
 7136.93  16.0645  1  4.59962  2.85617  0.303069
 7137.18  16.0639  1.0  4.59953  2.85622  0.301956
 7137.43  16.0633  1  4.59923  2.85623  0.300519
 7137.68  16.0627  1.0  4.59903  2.85616  0.298806
 7137.93  16.0621  1  4.59872  2.85616  0.296876
 7138.18  16.0616  1.0  4.59849  2.85615  0.294776
 7138.43  16.061  1  4.59817  2.8561  0.292582
 7138.68  16.0604  1.0  4.59795  2.85612  0.290385
 7138.93  16.0598  1  4.59764  2.8561  0.288202
 7139.18  16.0593  1.0  4.59733  2.85599  0.286114
 7139.43  16.0587  1  4.59713  2.856  0.284153
 7139.68  16.0581  1.0  4.5969  2.85597  0.282405
 7139.93  16.0575  1  4.59667  2.85606  0.280874
 7140.18  16.057  1.0  4.59626  2.85594  0.279588
 7140.43  16.0564  1  4.59605  2.8559  0.27859
 7140.68  16.0558  1.0  4.59585  2.85597  0.277874
 7140.93  16.0552  1  4.59556  2.85589  0.277458
 7141.18  16.0546  1.0  4.59531  2.85592  0.27729
 7141.43  16.0541  1  4.59503  2.85591  0.277418
 7141.68  16.0535  1.0  4.59477  2.85589  0.277758
 7141.93  16.0529  1  4.59427  2.85575  0.278193
 7142.18  16.0523  1.0  4.59396  2.8556  0.278822
 7142.43  16.0518  1  4.59377  2.85572  0.279578
 7142.68  16.0512  1.0  4.5935  2.85569  0.280339
 7142.93  16.0506  1  4.59321  2.85563  0.28109
 7143.18  16.05  1.0  4.59297  2.8556  0.281768
 7143.43  16.0494  1  4.59264  2.85556  0.282362
 7143.68  16.0489  1.0  4.59243  2.85559  0.282771
 7143.93  16.0483  1  4.59221  2.8556  0.283028
 7144.18  16.0477  1.0  4.59192  2.85559  0.283084
 7144.43  16.0471  1  4.59168  2.85557  0.282847
 7144.68  16.0466  1.0  4.59123  2.8554  0.282336
 7144.93  16.046  1  4.59109  2.85546  0.281585
 7145.18  16.0454  1.0  4.59074  2.85542  0.28055
 7145.43  16.0448  1  4.59046  2.8554  0.279224
 7145.68  16.0443  1.0  4.59013  2.85529  0.277651
 7145.93  16.0437  1  4.58985  2.8553  0.275786
 7146.18  16.0431  1.0  4.58969  2.85531  0.27378
 7146.43  16.0425  1  4.58947  2.85527  0.271582
 7146.68  16.042  1.0  4.58928  2.85528  0.269255
 7146.93  16.0414  1  4.58888  2.85528  0.266819
 7147.18  16.0408  1.0  4.58845  2.85518  0.264359
 7147.43  16.0402  1  4.58825  2.8551  0.261901
 7147.68  16.0397  1.0  4.5879  2.85506  0.259482
 7147.93  16.0391  1  4.58763  2.8551  0.25721
 7148.18  16.0385  1.0  4.58747  2.85502  0.255076
 7148.43  16.0379  1  4.58717  2.85507  0.253093
 7148.68  16.0373  1.0  4.58681  2.85494  0.251275
 7148.93  16.0368  1  4.58649  2.85495  0.249695
 7149.18  16.0362  1.0  4.58641  2.85493  0.248245
 7149.43  16.0356  1  4.58611  2.855  0.24695
 7149.68  16.035  1.0  4.58577  2.85494  0.245843
 7149.93  16.0345  1  4.58545  2.85485  0.244849
 7150.18  16.0339  1.0  4.5851  2.85472  0.243942
 7150.43  16.0333  1  4.58495  2.85478  0.243168
 7150.68  16.0327  1.0  4.5847  2.85488  0.242377
 7150.93  16.0322  1  4.58454  2.85485  0.241706
 7151.18  16.0316  1.0  4.58413  2.85472  0.24104
 7151.43  16.031  1  4.58659  2.85646  0.240567
 7151.68  16.0304  1.0  4.5947  2.86167  0.240403
 7151.93  16.0299  1  4.59456  2.8616  0.239839
 7152.18  16.0293  1.0  4.59424  2.86165  0.239335
 7152.43  16.0287  1  4.59387  2.86152  0.23894
 7152.68  16.0281  1.0  4.5934  2.86138  0.238627
 7152.93  16.0276  1  4.59309  2.86131  0.238447
 7153.18  16.027  1.0  4.59293  2.86133  0.238383
 7153.43  16.0264  1  4.59264  2.86138  0.238383
 7153.68  16.0258  1.0  4.59229  2.86127  0.238521
 7153.93  16.0253  1  4.59214  2.86129  0.238751
 7154.18  16.0247  1.0  4.59196  2.86134  0.239106
 7154.43  16.0241  1  4.59167  2.86135  0.23952
 7154.67  16.0235  1.0  4.59132  2.86129  0.240007
 7154.93  16.023  1  4.59111  2.86128  0.240525
 7155.18  16.0224  1.0  4.59075  2.86116  0.241062
 7155.43  16.0218  1  4.59041  2.86104  0.241622
 7155.68  16.0212  1.0  4.59012  2.86111  0.242203
 7155.93  16.0207  1  4.58991  2.86112  0.242724
 7156.18  16.0201  1.0  4.58974  2.86115  0.243215
 7156.43  16.0195  1  4.5896  2.86114  0.243728
 7156.67  16.0189  1.0  4.58934  2.86112  0.244101
 7156.93  16.0184  1  4.58897  2.86109  0.244489
 7157.18  16.0178  1.0  4.58879  2.86116  0.244795
 7157.43  16.0172  1  4.5886  2.86107  0.245034
 7157.68  16.0166  1.0  4.5882  2.86103  0.245229
 7157.92  16.0161  1  4.58789  2.86095  0.245366
 7158.18  16.0155  1.0  4.58739  2.86088  0.245456
 7158.43  16.0149  1  4.58723  2.86086  0.245536
 7158.68  16.0143  1.0  4.58713  2.86084  0.245585
 7158.93  16.0138  1  4.58683  2.86088  0.245658
 7159.18  16.0132  1.0  4.58652  2.8608  0.245714
 7159.42  16.0126  1  4.58617  2.86071  0.245749
 7159.67  16.012  1.0  4.58601  2.86086  0.245857
 7159.92  16.0115  1  4.58576  2.86077  0.245962
 7160.18  16.0109  1.0  4.58551  2.86078  0.246146
 7160.42  16.0103  1  4.58518  2.86076  0.246324
 7160.67  16.0098  1.0  4.58495  2.86067  0.246597
 7160.93  16.0092  1  4.58455  2.86059  0.246873
 7161.17  16.0086  1.0  4.58421  2.86049  0.247178
 7161.42  16.008  1  4.58395  2.86048  0.24758
 7161.67  16.0075  4.0  4.58355  2.86039  0.247983
 7171.67  15.9845  4  4.57496  2.8607  0.269171
 7181.67  15.9617  4.0  4.5668  2.86126  0.309592
 7191.67  15.9389  4  4.55806  2.86142  0.263032
 7201.67  15.9162  4.0  4.54989  2.8619  0.294122
 7211.67  15.8935  4  4.54141  2.86215  0.289619
 7221.67  15.8709  4.0  4.53216  2.86187  0.208149
 7231.67  15.8484  4  4.52452  2.86256  0.305323
 7241.67  15.826  4.0  4.5125  2.8604  0.339805
 7251.67  15.8036  4  4.49522  2.85487  0.316188
 7261.67  15.7812  4.0  4.3754  2.78401  0.308231
 7271.67  15.759  4  4.49243  2.86388  0.290545
 7281.66  15.7368  4.0  4.48629  2.86535  0.269765
 7291.66  15.7146  4  4.44848  2.84645  0.266534
 7301.66  15.6926  4.0  4.46677  2.86348  0.32806
 7311.66  15.6706  4  4.45825  2.86329  0.347439
 7321.66  15.6486  4.0  4.44955  2.8629  0.349457
 7331.66  15.6267  4  4.44075  2.86249  0.354506
 7341.66  15.6049  4.0  4.4319  2.86196  0.359495
 7351.66  15.5831  4  4.42281  2.86122  0.324075
 7361.66  15.5614  4.0  4.41378  2.8605  0.300517
 7371.66  15.5398  4  4.40503  2.85989  0.30882
 7381.65  15.5182  4.0  4.39638  2.85938  0.368303
 7391.65  15.4967  4  4.38778  2.85878  0.384343
 7401.65  15.4752  4.0  4.37884  2.85798  0.378395
 7411.65  15.4538  4  4.36984  2.85706  0.378108
 7421.65  15.4325  4.0  4.36068  2.85611  0.382708
 7431.65  15.4112  4  4.35162  2.85503  0.39029
 7441.65  15.39  4.0  4.34173  2.85343  0.379149
 7451.65  15.3688  4  4.29417  2.82696  0.362282
 7461.65  15.3477  4.0  4.33125  2.85623  0.369374
 7471.65  15.3267  4  4.32688  2.85819  0.387354
 7481.64  15.3057  4.0  4.31887  2.85771  0.403425
 7491.64  15.2848  4  4.30954  2.85626  0.420499
 7501.64  15.2639  4.0  4.30042  2.85499  0.422731
 7511.64  15.2431  4  4.29131  2.85361  0.421884
 7521.64  15.2223  4.0  4.28208  2.85215  0.426134
 7531.64  15.2016  4  4.27305  2.85079  0.425921
 7541.64  15.181  4.0  4.26402  2.84938  0.429335
 7551.64  15.1604  4  4.25502  2.84797  0.432062
 7561.63  15.1399  4.0  4.24575  2.84636  0.427332
 7571.63  15.1194  4  4.23659  2.84473  0.431231
 7581.63  15.099  4.0  4.22745  2.84308  0.445399
 7591.63  15.0786  4  4.21853  2.84161  0.454301
 7601.63  15.0583  4.0  4.17688  2.81802  0.453494
 7611.63  15.0381  4  4.19906  2.83736  0.463193
 7621.63  15.0179  4.0  4.19011  2.83571  0.466664
 7631.63  14.9977  4  4.181  2.83396  0.468742
 7641.63  14.9777  4.0  4.17183  2.83208  0.476766
 7651.63  14.9576  4  4.16242  2.83007  0.482923
 7661.625  14.9377  4.0  4.15302  2.82792  0.485422
 7671.62  14.9177  4  4.14361  2.82578  0.485162
 7681.62  14.8979  4.0  4.13426  2.82368  0.485218
 7691.62  14.8781  4  4.12443  2.82118  0.489746
 7701.62  14.8583  4.0  4.11019  2.81566  0.495337
 7711.62  14.8386  4  4.027  2.7627  0.492555
 7721.62  14.8189  4.0  4.08202  2.80463  0.507079
 7731.62  14.7993  4  4.09059  2.81462  0.513338
 7741.62  14.7798  4.0  4.0805  2.81181  0.51708
 7751.62  14.7603  4  4.07097  2.80933  0.520858
 7761.61  14.7408  4.0  4.06167  2.80694  0.525376
 7771.61  14.7214  4  4.05258  2.8047  0.531317
 7781.61  14.7021  4.0  4.04345  2.80232  0.536266
 7791.61  14.6828  4  4.03416  2.79988  0.540409
 7801.61  14.6636  4.0  4.02501  2.7975  0.543506
 7811.61  14.6444  4  4.01593  2.79513  0.546208
 7821.61  14.6252  4.0  4.0069  2.79276  0.549629
 7831.61  14.6061  4  3.99808  2.79051  0.553143
 7841.61  14.5871  4.0  3.96096  2.76844  0.553034
 7851.61  14.5681  4  3.98666  2.79023  0.56214
 7861.6  14.5492  4.0  3.97797  2.78796  0.566977
 7871.6  14.5303  4  3.96875  2.7853  0.572176
 7881.6  14.5115  4.0  3.95969  2.78268  0.577267
 7891.6  14.4927  4  3.95063  2.78011  0.581854
 7901.6  14.4739  4.0  3.94135  2.77728  0.58638
 7911.6  14.4552  4  3.93224  2.77455  0.590784
 7921.6  14.4366  4.0  3.92293  2.77167  0.594907
 7931.6  14.418  4  3.91288  2.76823  0.598933
 7941.6  14.3994  4.0  3.88356  2.75113  0.599005
 7951.59  14.381  4  3.89559  2.76321  0.605627
 7961.59  14.3625  4.0  3.88695  2.76068  0.609465
 7971.59  14.3441  4  3.87799  2.7579  0.613051
 7981.59  14.3257  4.0  3.86883  2.75492  0.616341
 7991.59  14.3074  4  3.85967  2.75194  0.620458
 8001.59  14.2892  4.0  3.85059  2.74896  0.624581
 8011.59  14.271  4  3.84145  2.7459  0.6287
 8021.59  14.2528  4.0  3.8322  2.74278  0.632948
 8031.59  14.2347  4  3.82295  2.73959  0.637199
 8041.59  14.2166  4.0  3.81359  2.7363  0.641448
 8051.58  14.1986  4  3.80384  2.73269  0.645827
 8061.58  14.1806  4.0  3.79215  2.72766  0.649888
 8071.58  14.1627  4  3.77409  2.71796  0.652901
 8081.58  14.1448  4.0  3.78252  2.72738  0.660108
 8091.58  14.1269  4  3.77322  2.72403  0.663681
 8101.58  14.1091  4.0  3.7633  2.72018  0.666639
 8111.58  14.0914  4  3.75399  2.71669  0.670061
 8121.58  14.0737  4.0  3.74485  2.71334  0.673917
 8131.58  14.056  4  3.73585  2.71008  0.677832
 8141.57  14.0384  4.0  3.72686  2.70673  0.681546
 8151.57  14.0208  4  3.71791  2.70342  0.685332
 8161.57  14.0033  4.0  3.709  2.70014  0.689238
 8171.57  13.9858  4  3.70008  2.69681  0.693183
 8181.57  13.9684  4.0  3.69116  2.69347  0.697304
 8191.57  13.951  4  3.68244  2.69019  0.701472
 8201.57  13.9336  4.0  3.67355  2.68679  0.70547
 8211.57  13.9163  4  3.66474  2.68341  0.709558
 8221.57  13.8991  4.0  3.66442  2.68625  0.715366
 8231.57  13.8818  4  3.65572  2.68295  0.719629
 8241.56  13.8647  4.0  3.64714  2.67961  0.723717
 8251.57  13.8475  4  3.63838  2.6762  0.727568
 8261.56  13.8304  4.0  3.6299  2.67297  0.731368
 8271.56  13.8134  4  3.62158  2.6698  0.735259
 8281.56  13.7964  4.0  3.6115  2.66532  0.738796
 8291.56  13.7794  4  3.60401  2.66271  0.742915
 8301.56  13.7625  4.0  3.59571  2.65953  0.746792
 8311.56  13.7456  4  3.5874  2.65627  0.750682
 8321.55  13.7288  4.0  3.5789  2.65284  0.754539
 8331.56  13.712  4  3.57028  2.64933  0.758458
 8341.55  13.6952  4.0  3.56127  2.64547  0.762223